File: HOPG_cv/3mM/AgNO3_HOPG_3mM_80mv_1_cv.DTA
EXPLAIN
TAG	CV
TITLE	LABEL	Cyclic Voltammetry	Test &Identifier
DATE	LABEL	30/4/2022	Date
TIME	LABEL	16:01:51	Time
NOTES	NOTES	2	&Notes...
	30/04/22 , 5mM  AgNO3

PSTAT	PSTAT	IFC1000-09004	Potentiostat
VINIT	POTEN	1,00000E-001	F	Initial &E (V)
VLIMIT1	POTEN	1,00000E-001	F	Scan Limit &1 (V)
VLIMIT2	POTEN	8,00000E-001	F	Scan Limit &2 (V)
VFINAL	POTEN	1,00000E-001	F	Final &E (V)
SCANRATE	QUANT	7,99998E+001	&Scan Rate (mV/s)
STEPSIZE	QUANT	1,00000E+000	St&ep Size (mV)
CYCLES	IQUANT	1	C&ycles (#)
IMODE	SELECTOR	0	I/E Range &Mode
IRANGE	QUANT	1,00000E-005	&Max Current (mA)
AREA	QUANT	1,00000E+000	Electrode &Area (cm^2)
ELECTRODETYPE	SELECTOR	0	Electrode Type
STRIPPING	TOGGLE	F	Used for Stripping
POLARITY	TOGGLE	F	Signal Polarity
CONDIT	TWOPARAM	F	1,50000E+001	0,00000E+000	Conditionin&g	Time(s)	E(V)
DELAY	TWOPARAM	F	3,00000E+001	0,00000E+000	Init. De&lay	Time(s)	Stab.(mV/s)
EQDELAY	QUANT	1,00000E+001	Equil. &Time (s)
IRCOMP	SELECTOR	0	IRCom&p
PFCOR	QUANT	5,00000E+001	PF Corr. (ohm)
SAMPLINGMODE	SELECTOR	1	Sampling &Mode
EOC	QUANT	0	Open Circuit (V)
PSTATMODEL	IQUANT	48	Pstat Model
PSTATSECTION	LABEL	IFC1000-09004	Pstat Section
PSTATSERIALNO	LABEL	09004	Pstat Serial Number
CTRLMODE	IQUANT	1	Control Mode
ELECTROMETER	IQUANT	0	RE=0 or CS=1
IESTAB	IQUANT	2	I/E Stability
CASPEED	IQUANT	4	Control Amp Speed
CONVENTION	IQUANT	1	Current Convention
ICHRANGE	IQUANT	2	Ich Range
ICHRANGEMODE	TOGGLE	F	Ich Auto Range
ICHOFFSETENABLE	TOGGLE	F	Ich Offset Enable
ICHOFFSET	QUANT	0	Ich Offset (V)
ICHFILTER	IQUANT	3	Ich Filter
VCHRANGE	IQUANT	2	Vch Range
VCHRANGEMODE	TOGGLE	F	Vch Auto Range
VCHOFFSETENABLE	TOGGLE	F	Vch Offset Enable
VCHOFFSET	QUANT	0	Vch Offset (V)
VCHFILTER	IQUANT	3	Vch Filter
IERANGELOWERLIMIT	IQUANT	4	I/E Range Lower Limit
IERANGEMODE	TOGGLE	T	I/E AutoRange
IERANGE	IQUANT	5	I/E Range
ACHSELECT	IQUANT	0	Ach Select
ACHRANGE	IQUANT	2	Ach Range
ACHOFFSETENABLE	TOGGLE	F	Ach Offset Enable
ACHOFFSET	QUANT	0	Ach Offset (V)
ACHFILTER	IQUANT	1	Ach Filter
CABLEID	IQUANT	14	Cable ID
DCCALDATE	LABEL	3/18/2022	DC Calibration Date
ACCALDATE	LABEL	3/10/2016	AC Calibration Date
FRAMEWORKVERSION	QUANT	7,05	Framework Version
INSTRUMENTVERSION	LABEL	4.21	Instrument Version
CURVE1	TABLE
	Pt	T	Vf	Im	Vu	Sig	Ach	IERange	Over	Temp
	#	s	V vs. Ref.	A	V	V	V	#	bits	deg C
	0	0,0125	9,97922E-002	-3,69820E-005	0,00000E+000	1,00006E-001	0,00000E+000	8	...........	-32768,00
	3	0,05	1,02779E-001	-3,59689E-005	0,00000E+000	1,02994E-001	0,00000E+000	8	...........	-32768,00
	6	0,0875	1,05789E-001	-3,53654E-005	0,00000E+000	1,05994E-001	0,00000E+000	8	...........	-32768,00
	9	0,125	1,08787E-001	-3,48709E-005	0,00000E+000	1,08994E-001	0,00000E+000	8	...........	-32768,00
	12	0,1625	1,11796E-001	-3,44728E-005	0,00000E+000	1,11995E-001	0,00000E+000	8	...........	-32768,00
	15	0,2	1,14787E-001	-3,41114E-005	0,00000E+000	1,14995E-001	0,00000E+000	8	...........	-32768,00
	18	0,2375	1,17805E-001	-3,37874E-005	0,00000E+000	1,17995E-001	0,00000E+000	8	...........	-32768,00
	21	0,275	1,20794E-001	-3,34555E-005	0,00000E+000	1,20995E-001	0,00000E+000	8	...........	-32768,00
	24	0,3125	1,23788E-001	-3,31418E-005	0,00000E+000	1,23996E-001	0,00000E+000	8	...........	-32768,00
	27	0,35	1,26797E-001	-3,28640E-005	0,00000E+000	1,26996E-001	0,00000E+000	8	...........	-32768,00
	30	0,3875	1,29806E-001	-3,25749E-005	0,00000E+000	1,29996E-001	0,00000E+000	8	...........	-32768,00
	33	0,425	1,32807E-001	-3,22715E-005	0,00000E+000	1,32996E-001	0,00000E+000	8	...........	-32768,00
	36	0,4625	1,35800E-001	-3,20129E-005	0,00000E+000	1,35997E-001	0,00000E+000	8	...........	-32768,00
	39	0,5	1,38790E-001	-3,17920E-005	0,00000E+000	1,38997E-001	0,00000E+000	8	...........	-32768,00
	42	0,5375	1,41805E-001	-3,15657E-005	0,00000E+000	1,41997E-001	0,00000E+000	8	...........	-32768,00
	45	0,575	1,44802E-001	-3,13464E-005	0,00000E+000	1,44997E-001	0,00000E+000	8	...........	-32768,00
	48	0,6125	1,47804E-001	-3,11342E-005	0,00000E+000	1,47998E-001	0,00000E+000	8	...........	-32768,00
	51	0,65	1,50782E-001	-3,09304E-005	0,00000E+000	1,50998E-001	0,00000E+000	8	...........	-32768,00
	54	0,6875	1,53798E-001	-3,07342E-005	0,00000E+000	1,53998E-001	0,00000E+000	8	...........	-32768,00
	57	0,725	1,56810E-001	-3,05230E-005	0,00000E+000	1,56998E-001	0,00000E+000	8	...........	-32768,00
	60	0,7625	1,59798E-001	-3,03392E-005	0,00000E+000	1,59999E-001	0,00000E+000	8	...........	-32768,00
	63	0,8	1,62807E-001	-3,01707E-005	0,00000E+000	1,62999E-001	0,00000E+000	8	...........	-32768,00
	66	0,8375	1,65793E-001	-2,99855E-005	0,00000E+000	1,65999E-001	0,00000E+000	8	...........	-32768,00
	69	0,875	1,68830E-001	-2,97799E-005	0,00000E+000	1,68999E-001	0,00000E+000	8	...........	-32768,00
	72	0,9125	1,71821E-001	-2,96174E-005	0,00000E+000	1,71999E-001	0,00000E+000	8	...........	-32768,00
	75	0,95	1,74799E-001	-2,94731E-005	0,00000E+000	1,75000E-001	0,00000E+000	8	...........	-32768,00
	78	0,9875	1,77783E-001	-2,93061E-005	0,00000E+000	1,78000E-001	0,00000E+000	8	...........	-32768,00
	81	1,025	1,80821E-001	-2,91334E-005	0,00000E+000	1,81000E-001	0,00000E+000	8	...........	-32768,00
	84	1,0625	1,83822E-001	-2,89907E-005	0,00000E+000	1,84000E-001	0,00000E+000	8	...........	-32768,00
	87	1,1	1,86809E-001	-2,88749E-005	0,00000E+000	1,87001E-001	0,00000E+000	8	...........	-32768,00
	90	1,1375	1,89805E-001	-2,87167E-005	0,00000E+000	1,90001E-001	0,00000E+000	8	...........	-32768,00
	93	1,175	1,92829E-001	-2,85342E-005	0,00000E+000	1,93001E-001	0,00000E+000	8	...........	-32768,00
	96	1,2125	1,95814E-001	-2,84176E-005	0,00000E+000	1,96001E-001	0,00000E+000	8	...........	-32768,00
	99	1,25	1,98826E-001	-2,82790E-005	0,00000E+000	1,99002E-001	0,00000E+000	8	...........	-32768,00
	102	1,2875	2,01799E-001	-2,81367E-005	0,00000E+000	2,02002E-001	0,00000E+000	8	...........	-32768,00
	105	1,325	2,04793E-001	-2,79724E-005	0,00000E+000	2,05002E-001	0,00000E+000	8	...........	-32768,00
	108	1,3625	2,07820E-001	-2,78484E-005	0,00000E+000	2,08002E-001	0,00000E+000	8	...........	-32768,00
	111	1,4	2,10808E-001	-2,77503E-005	0,00000E+000	2,11003E-001	0,00000E+000	8	...........	-32768,00
	114	1,4375	2,13811E-001	-2,76149E-005	0,00000E+000	2,14003E-001	0,00000E+000	8	...........	-32768,00
	117	1,475	2,16808E-001	-2,74570E-005	0,00000E+000	2,17003E-001	0,00000E+000	8	...........	-32768,00
	120	1,5125	2,19809E-001	-2,73271E-005	0,00000E+000	2,20003E-001	0,00000E+000	8	...........	-32768,00
	123	1,55	2,22833E-001	-2,72345E-005	0,00000E+000	2,23004E-001	0,00000E+000	8	...........	-32768,00
	126	1,5875	2,25803E-001	-2,70842E-005	0,00000E+000	2,26004E-001	0,00000E+000	8	...........	-32768,00
	129	1,625	2,28807E-001	-2,69469E-005	0,00000E+000	2,29004E-001	0,00000E+000	8	...........	-32768,00
	132	1,6625	2,31831E-001	-2,68555E-005	0,00000E+000	2,32004E-001	0,00000E+000	8	...........	-32768,00
	135	1,7	2,34834E-001	-2,67483E-005	0,00000E+000	2,35005E-001	0,00000E+000	8	...........	-32768,00
	138	1,7375	2,37828E-001	-2,65979E-005	0,00000E+000	2,38005E-001	0,00000E+000	8	...........	-32768,00
	141	1,775	2,40827E-001	-2,64671E-005	0,00000E+000	2,41005E-001	0,00000E+000	8	...........	-32768,00
	144	1,8125	2,43833E-001	-2,63414E-005	0,00000E+000	2,44005E-001	0,00000E+000	8	...........	-32768,00
	147	1,85	2,46809E-001	-2,62455E-005	0,00000E+000	2,47005E-001	0,00000E+000	8	...........	-32768,00
	150	1,8875	2,49823E-001	-2,61180E-005	0,00000E+000	2,50006E-001	0,00000E+000	8	...........	-32768,00
	153	1,925	2,52805E-001	-2,59710E-005	0,00000E+000	2,53006E-001	0,00000E+000	8	...........	-32768,00
	156	1,9625	2,55820E-001	-2,58663E-005	0,00000E+000	2,56006E-001	0,00000E+000	8	...........	-32768,00
	159	2	2,58820E-001	-2,57454E-005	0,00000E+000	2,58994E-001	0,00000E+000	8	...........	-32768,00
	162	2,0375	2,61824E-001	-2,56264E-005	0,00000E+000	2,61994E-001	0,00000E+000	8	...........	-32768,00
	165	2,075	2,64821E-001	-2,54592E-005	0,00000E+000	2,64994E-001	0,00000E+000	8	...........	-32768,00
	168	2,1125	2,67807E-001	-2,53663E-005	0,00000E+000	2,67995E-001	0,00000E+000	8	...........	-32768,00
	171	2,15	2,70826E-001	-2,52349E-005	0,00000E+000	2,70995E-001	0,00000E+000	8	...........	-32768,00
	174	2,1875	2,73812E-001	-2,50951E-005	0,00000E+000	2,73995E-001	0,00000E+000	8	...........	-32768,00
	177	2,225	2,76812E-001	-2,49313E-005	0,00000E+000	2,76995E-001	0,00000E+000	8	...........	-32768,00
	180	2,2625	2,79828E-001	-2,48182E-005	0,00000E+000	2,79996E-001	0,00000E+000	8	...........	-32768,00
	183	2,3	2,82832E-001	-2,46879E-005	0,00000E+000	2,82996E-001	0,00000E+000	8	...........	-32768,00
	186	2,3375	2,85830E-001	-2,45387E-005	0,00000E+000	2,85996E-001	0,00000E+000	8	...........	-32768,00
	189	2,375	2,88817E-001	-2,43432E-005	0,00000E+000	2,88996E-001	0,00000E+000	8	...........	-32768,00
	192	2,4125	2,91824E-001	-2,42222E-005	0,00000E+000	2,91997E-001	0,00000E+000	8	...........	-32768,00
	195	2,45	2,94818E-001	-2,40742E-005	0,00000E+000	2,94997E-001	0,00000E+000	8	...........	-32768,00
	198	2,4875	2,97826E-001	-2,39126E-005	0,00000E+000	2,97997E-001	0,00000E+000	8	...........	-32768,00
	201	2,525	3,00838E-001	-2,37107E-005	0,00000E+000	3,00997E-001	0,00000E+000	8	...........	-32768,00
	204	2,5625	3,03824E-001	-2,35323E-005	0,00000E+000	3,03998E-001	0,00000E+000	8	...........	-32768,00
	207	2,6	3,06826E-001	-2,33670E-005	0,00000E+000	3,06998E-001	0,00000E+000	8	...........	-32768,00
	210	2,6375	3,09834E-001	-2,31568E-005	0,00000E+000	3,09998E-001	0,00000E+000	8	...........	-32768,00
	213	2,675	3,12840E-001	-2,29171E-005	0,00000E+000	3,12998E-001	0,00000E+000	8	...........	-32768,00
	216	2,7125	3,15842E-001	-2,27286E-005	0,00000E+000	3,15998E-001	0,00000E+000	8	...........	-32768,00
	219	2,75	3,18824E-001	-2,25004E-005	0,00000E+000	3,18999E-001	0,00000E+000	8	...........	-32768,00
	222	2,7875	3,21843E-001	-2,22406E-005	0,00000E+000	3,21999E-001	0,00000E+000	8	...........	-32768,00
	225	2,825	3,24844E-001	-2,19374E-005	0,00000E+000	3,24999E-001	0,00000E+000	8	...........	-32768,00
	228	2,8625	3,27841E-001	-2,16772E-005	0,00000E+000	3,27999E-001	0,00000E+000	8	...........	-32768,00
	231	2,9	3,30832E-001	-2,13779E-005	0,00000E+000	3,31000E-001	0,00000E+000	8	...........	-32768,00
	234	2,9375	3,33853E-001	-2,10570E-005	0,00000E+000	3,34000E-001	0,00000E+000	8	...........	-32768,00
	237	2,975	3,36844E-001	-2,06248E-005	0,00000E+000	3,37000E-001	0,00000E+000	8	...........	-32768,00
	240	3,0125	3,39841E-001	-2,02356E-005	0,00000E+000	3,40000E-001	0,00000E+000	8	...........	-32768,00
	243	3,05	3,42835E-001	-1,96847E-005	0,00000E+000	3,43001E-001	0,00000E+000	8	...........	-32768,00
	246	3,0875	3,45831E-001	-1,90623E-005	0,00000E+000	3,46001E-001	0,00000E+000	8	...........	-32768,00
	249	3,125	3,48848E-001	-1,83433E-005	0,00000E+000	3,49001E-001	0,00000E+000	8	...........	-32768,00
	252	3,1625	3,51844E-001	-1,76853E-005	0,00000E+000	3,52001E-001	0,00000E+000	8	...........	-32768,00
	255	3,2	3,54839E-001	-1,70420E-005	0,00000E+000	3,55002E-001	0,00000E+000	8	...........	-32768,00
	258	3,2375	3,57827E-001	-1,63638E-005	0,00000E+000	3,58002E-001	0,00000E+000	8	...........	-32768,00
	261	3,275	3,60848E-001	-1,56698E-005	0,00000E+000	3,61002E-001	0,00000E+000	8	...........	-32768,00
	264	3,3125	3,63840E-001	-1,50214E-005	0,00000E+000	3,64002E-001	0,00000E+000	8	...........	-32768,00
	267	3,35	3,66833E-001	-1,42825E-005	0,00000E+000	3,67003E-001	0,00000E+000	8	...........	-32768,00
	270	3,3875	3,69848E-001	-1,35238E-005	0,00000E+000	3,70003E-001	0,00000E+000	8	...........	-32768,00
	273	3,425	3,72863E-001	-1,26655E-005	0,00000E+000	3,73003E-001	0,00000E+000	8	...........	-32768,00
	276	3,4625	3,75857E-001	-1,18252E-005	0,00000E+000	3,76003E-001	0,00000E+000	8	...........	-32768,00
	279	3,5	3,78856E-001	-1,08778E-005	0,00000E+000	3,79004E-001	0,00000E+000	8	...........	-32768,00
	282	3,5375	3,81848E-001	-9,87747E-006	0,00000E+000	3,82004E-001	0,00000E+000	8	...........	-32768,00
	285	3,575	3,84859E-001	-8,76162E-006	0,00000E+000	3,85004E-001	0,00000E+000	8	...........	-32768,00
	288	3,6125	3,87867E-001	-7,65188E-006	0,00000E+000	3,88004E-001	0,00000E+000	8	...........	-32768,00
	291	3,65	3,90852E-001	-6,43244E-006	0,00000E+000	3,91005E-001	0,00000E+000	8	...........	-32768,00
	294	3,6875	3,93851E-001	-5,13822E-006	0,00000E+000	3,94005E-001	0,00000E+000	8	...........	-32768,00
	297	3,725	3,96858E-001	-3,70005E-006	0,00000E+000	3,97005E-001	0,00000E+000	8	...........	-32768,00
	300	3,7625	3,99862E-001	-2,32879E-006	0,00000E+000	4,00005E-001	0,00000E+000	8	...........	-32768,00
	303	3,8	4,02865E-001	-8,22944E-007	0,00000E+000	4,03005E-001	0,00000E+000	8	...........	-32768,00
	306	3,8375	4,05854E-001	7,78227E-007	0,00000E+000	4,06006E-001	0,00000E+000	8	...........	-32768,00
	309	3,875	4,08855E-001	2,48392E-006	0,00000E+000	4,09006E-001	0,00000E+000	8	...........	-32768,00
	312	3,9125	4,11851E-001	4,19769E-006	0,00000E+000	4,12006E-001	0,00000E+000	8	...........	-32768,00
	315	3,95	4,14839E-001	5,98839E-006	0,00000E+000	4,14994E-001	0,00000E+000	8	...........	-32768,00
	318	3,9875	4,17844E-001	7,85923E-006	0,00000E+000	4,17994E-001	0,00000E+000	8	...........	-32768,00
	321	4,025	4,20832E-001	9,88369E-006	0,00000E+000	4,20994E-001	0,00000E+000	8	...........	-32768,00
	324	4,0625	4,23874E-001	1,18145E-005	0,00000E+000	4,23995E-001	0,00000E+000	8	...........	-32768,00
	327	4,1	4,26858E-001	1,38942E-005	0,00000E+000	4,26995E-001	0,00000E+000	8	...........	-32768,00
	330	4,1375	4,29853E-001	1,60078E-005	0,00000E+000	4,29995E-001	0,00000E+000	8	...........	-32768,00
	333	4,175	4,32837E-001	1,82520E-005	0,00000E+000	4,32995E-001	0,00000E+000	8	...........	-32768,00
	336	4,2125	4,35854E-001	2,04499E-005	0,00000E+000	4,35996E-001	0,00000E+000	8	...........	-32768,00
	339	4,25	4,38847E-001	2,27653E-005	0,00000E+000	4,38996E-001	0,00000E+000	8	...........	-32768,00
	342	4,2875	4,41852E-001	2,51976E-005	0,00000E+000	4,41996E-001	0,00000E+000	8	...........	-32768,00
	345	4,325	4,44836E-001	2,78238E-005	0,00000E+000	4,44996E-001	0,00000E+000	8	...........	-32768,00
	348	4,3625	4,47844E-001	3,04638E-005	0,00000E+000	4,47997E-001	0,00000E+000	8	...........	-32768,00
	351	4,4	4,50847E-001	3,32943E-005	0,00000E+000	4,50997E-001	0,00000E+000	8	...........	-32768,00
	354	4,4375	4,53842E-001	3,63122E-005	0,00000E+000	4,53997E-001	0,00000E+000	8	...........	-32768,00
	357	4,475	4,56850E-001	3,96502E-005	0,00000E+000	4,56997E-001	0,00000E+000	8	...........	-32768,00
	360	4,5125	4,59849E-001	4,29968E-005	0,00000E+000	4,59998E-001	0,00000E+000	8	...........	-32768,00
	363	4,55	4,62868E-001	4,66889E-005	0,00000E+000	4,62998E-001	0,00000E+000	8	...........	-32768,00
	366	4,5875	4,65851E-001	5,06400E-005	0,00000E+000	4,65998E-001	0,00000E+000	8	...........	-32768,00
	369	4,625	4,68852E-001	5,49304E-005	0,00000E+000	4,68998E-001	0,00000E+000	8	...........	-32768,00
	372	4,6625	4,71855E-001	5,93408E-005	0,00000E+000	4,71999E-001	0,00000E+000	8	...........	-32768,00
	375	4,7	4,74873E-001	6,40840E-005	0,00000E+000	4,74999E-001	0,00000E+000	8	...........	-32768,00
	378	4,7375	4,77869E-001	6,91706E-005	0,00000E+000	4,77999E-001	0,00000E+000	8	...........	-32768,00
	381	4,775	4,80844E-001	7,46515E-005	0,00000E+000	4,80999E-001	0,00000E+000	8	...........	-32768,00
	384	4,8125	4,83848E-001	8,03260E-005	0,00000E+000	4,83999E-001	0,00000E+000	8	...........	-32768,00
	387	4,85	4,86857E-001	8,63601E-005	0,00000E+000	4,87000E-001	0,00000E+000	8	...........	-32768,00
	390	4,8875	4,89865E-001	9,27868E-005	0,00000E+000	4,90000E-001	0,00000E+000	9	...........	-32768,00
	393	4,925	4,92862E-001	9,96196E-005	0,00000E+000	4,93000E-001	0,00000E+000	9	...........	-32768,00
	396	4,9625	4,95863E-001	1,06651E-004	0,00000E+000	4,96000E-001	0,00000E+000	9	...........	-32768,00
	399	5	4,98854E-001	1,14096E-004	0,00000E+000	4,99001E-001	0,00000E+000	9	...........	-32768,00
	402	5,0375	5,01871E-001	1,21883E-004	0,00000E+000	5,02001E-001	0,00000E+000	9	...........	-32768,00
	405	5,075	5,04863E-001	1,30155E-004	0,00000E+000	5,05001E-001	0,00000E+000	9	...........	-32768,00
	408	5,1125	5,07866E-001	1,38605E-004	0,00000E+000	5,08001E-001	0,00000E+000	9	...........	-32768,00
	411	5,15	5,10864E-001	1,47465E-004	0,00000E+000	5,11002E-001	0,00000E+000	9	...........	-32768,00
	414	5,1875	5,13891E-001	1,56716E-004	0,00000E+000	5,14002E-001	0,00000E+000	9	...........	-32768,00
	417	5,225	5,16885E-001	1,66416E-004	0,00000E+000	5,17002E-001	0,00000E+000	9	...........	-32768,00
	420	5,2625	5,19887E-001	1,76335E-004	0,00000E+000	5,20002E-001	0,00000E+000	9	...........	-32768,00
	423	5,3	5,22875E-001	1,86629E-004	0,00000E+000	5,23003E-001	0,00000E+000	9	...........	-32768,00
	426	5,3375	5,25896E-001	1,97241E-004	0,00000E+000	5,26003E-001	0,00000E+000	9	...........	-32768,00
	429	5,375	5,28881E-001	2,08298E-004	0,00000E+000	5,29003E-001	0,00000E+000	9	...........	-32768,00
	432	5,4125	5,31880E-001	2,19564E-004	0,00000E+000	5,32003E-001	0,00000E+000	9	...........	-32768,00
	435	5,45	5,34889E-001	2,31243E-004	0,00000E+000	5,35004E-001	0,00000E+000	9	...........	-32768,00
	438	5,4875	5,37882E-001	2,43190E-004	0,00000E+000	5,38004E-001	0,00000E+000	9	...........	-32768,00
	441	5,525	5,40887E-001	2,55571E-004	0,00000E+000	5,41004E-001	0,00000E+000	9	...........	-32768,00
	444	5,5625	5,43901E-001	2,68020E-004	0,00000E+000	5,44004E-001	0,00000E+000	9	...........	-32768,00
	447	5,6	5,46877E-001	2,80653E-004	0,00000E+000	5,47005E-001	0,00000E+000	9	...........	-32768,00
	450	5,6375	5,49877E-001	2,93831E-004	0,00000E+000	5,50005E-001	0,00000E+000	9	...........	-32768,00
	453	5,675	5,52886E-001	3,07211E-004	0,00000E+000	5,53005E-001	0,00000E+000	9	...........	-32768,00
	456	5,7125	5,55878E-001	3,20732E-004	0,00000E+000	5,56005E-001	0,00000E+000	9	...........	-32768,00
	459	5,75	5,58892E-001	3,34563E-004	0,00000E+000	5,59005E-001	0,00000E+000	9	...........	-32768,00
	462	5,7875	5,61867E-001	3,48768E-004	0,00000E+000	5,62006E-001	0,00000E+000	9	...........	-32768,00
	465	5,825	5,64899E-001	3,63238E-004	0,00000E+000	5,65006E-001	0,00000E+000	9	...........	-32768,00
	468	5,8625	5,67898E-001	3,77815E-004	0,00000E+000	5,68006E-001	0,00000E+000	9	...........	-32768,00
	471	5,9	5,70875E-001	3,92579E-004	0,00000E+000	5,70994E-001	0,00000E+000	9	...........	-32768,00
	474	5,9375	5,73887E-001	4,07655E-004	0,00000E+000	5,73994E-001	0,00000E+000	9	...........	-32768,00
	477	5,975	5,76879E-001	4,23060E-004	0,00000E+000	5,76994E-001	0,00000E+000	9	...........	-32768,00
	480	6,0125	5,79900E-001	4,38533E-004	0,00000E+000	5,79995E-001	0,00000E+000	9	...........	-32768,00
	483	6,05	5,82894E-001	4,54219E-004	0,00000E+000	5,82995E-001	0,00000E+000	9	...........	-32768,00
	486	6,0875	5,85872E-001	4,70253E-004	0,00000E+000	5,85995E-001	0,00000E+000	9	...........	-32768,00
	489	6,125	5,88879E-001	4,86415E-004	0,00000E+000	5,88995E-001	0,00000E+000	9	...........	-32768,00
	492	6,1625	5,91898E-001	5,02504E-004	0,00000E+000	5,91996E-001	0,00000E+000	9	...........	-32768,00
	495	6,2	5,94894E-001	5,18709E-004	0,00000E+000	5,94996E-001	0,00000E+000	9	...........	-32768,00
	498	6,2375	5,97893E-001	5,34882E-004	0,00000E+000	5,97996E-001	0,00000E+000	9	...........	-32768,00
	501	6,275	6,00874E-001	5,51215E-004	0,00000E+000	6,00996E-001	0,00000E+000	9	...........	-32768,00
	504	6,3125	6,03906E-001	5,67300E-004	0,00000E+000	6,03997E-001	0,00000E+000	9	...........	-32768,00
	507	6,35	6,06905E-001	5,83015E-004	0,00000E+000	6,06997E-001	0,00000E+000	9	...........	-32768,00
	510	6,3875	6,09881E-001	5,98377E-004	0,00000E+000	6,09997E-001	0,00000E+000	9	...........	-32768,00
	513	6,425	6,12898E-001	6,13243E-004	0,00000E+000	6,12997E-001	0,00000E+000	9	...........	-32768,00
	516	6,4625	6,15920E-001	6,26923E-004	0,00000E+000	6,15998E-001	0,00000E+000	9	...........	-32768,00
	519	6,5	6,18906E-001	6,39691E-004	0,00000E+000	6,18998E-001	0,00000E+000	9	...........	-32768,00
	522	6,5375	6,21898E-001	6,51193E-004	0,00000E+000	6,21998E-001	0,00000E+000	9	...........	-32768,00
	525	6,575	6,24886E-001	6,61308E-004	0,00000E+000	6,24998E-001	0,00000E+000	9	...........	-32768,00
	528	6,6125	6,27886E-001	6,69426E-004	0,00000E+000	6,27999E-001	0,00000E+000	9	...........	-32768,00
	531	6,65	6,30908E-001	6,75476E-004	0,00000E+000	6,30999E-001	0,00000E+000	9	...........	-32768,00
	534	6,6875	6,33907E-001	6,79157E-004	0,00000E+000	6,33999E-001	0,00000E+000	9	...........	-32768,00
	537	6,725	6,36902E-001	6,80295E-004	0,00000E+000	6,36999E-001	0,00000E+000	9	...........	-32768,00
	540	6,7625	6,39908E-001	6,78122E-004	0,00000E+000	6,40000E-001	0,00000E+000	9	...........	-32768,00
	543	6,8	6,42916E-001	6,72607E-004	0,00000E+000	6,43000E-001	0,00000E+000	9	...........	-32768,00
	546	6,8375	6,45915E-001	6,63730E-004	0,00000E+000	6,46000E-001	0,00000E+000	9	...........	-32768,00
	549	6,875	6,48910E-001	6,51537E-004	0,00000E+000	6,49000E-001	0,00000E+000	9	...........	-32768,00
	552	6,9125	6,51913E-001	6,35404E-004	0,00000E+000	6,52000E-001	0,00000E+000	9	...........	-32768,00
	555	6,95	6,54931E-001	6,13788E-004	0,00000E+000	6,55001E-001	0,00000E+000	9	...........	-32768,00
	558	6,9875	6,57913E-001	5,83757E-004	0,00000E+000	6,58001E-001	0,00000E+000	9	...........	-32768,00
	561	7,025	6,60919E-001	5,40439E-004	0,00000E+000	6,61001E-001	0,00000E+000	9	...........	-32768,00
	564	7,0625	6,63922E-001	4,76929E-004	0,00000E+000	6,64001E-001	0,00000E+000	9	...........	-32768,00
	567	7,1	6,66948E-001	3,87995E-004	0,00000E+000	6,67002E-001	0,00000E+000	9	...........	-32768,00
	570	7,1375	6,69951E-001	2,83614E-004	0,00000E+000	6,70002E-001	0,00000E+000	9	...........	-32768,00
	573	7,175	6,72935E-001	2,12058E-004	0,00000E+000	6,73002E-001	0,00000E+000	9	...........	-32768,00
	576	7,2125	6,75927E-001	1,81157E-004	0,00000E+000	6,76002E-001	0,00000E+000	9	...........	-32768,00
	579	7,25	6,78921E-001	1,64004E-004	0,00000E+000	6,79003E-001	0,00000E+000	9	...........	-32768,00
	582	7,2875	6,81939E-001	1,51436E-004	0,00000E+000	6,82003E-001	0,00000E+000	9	...........	-32768,00
	585	7,325	6,84944E-001	1,41904E-004	0,00000E+000	6,85003E-001	0,00000E+000	9	...........	-32768,00
	588	7,3625	6,87923E-001	1,34133E-004	0,00000E+000	6,88003E-001	0,00000E+000	9	...........	-32768,00
	591	7,4	6,90927E-001	1,27576E-004	0,00000E+000	6,91004E-001	0,00000E+000	9	...........	-32768,00
	594	7,4375	6,93942E-001	1,22054E-004	0,00000E+000	6,94004E-001	0,00000E+000	9	...........	-32768,00
	597	7,475	6,96941E-001	1,17136E-004	0,00000E+000	6,97004E-001	0,00000E+000	9	...........	-32768,00
	600	7,5125	6,99941E-001	1,13019E-004	0,00000E+000	7,00004E-001	0,00000E+000	9	...........	-32768,00
	603	7,55	7,02934E-001	1,09282E-004	0,00000E+000	7,03005E-001	0,00000E+000	9	...........	-32768,00
	606	7,5875	7,05947E-001	1,06089E-004	0,00000E+000	7,06005E-001	0,00000E+000	9	...........	-32768,00
	609	7,625	7,08943E-001	1,03364E-004	0,00000E+000	7,09005E-001	0,00000E+000	9	...........	-32768,00
	612	7,6625	7,11941E-001	1,00654E-004	0,00000E+000	7,12005E-001	0,00000E+000	9	...........	-32768,00
	615	7,7	7,14925E-001	9,82966E-005	0,00000E+000	7,15006E-001	0,00000E+000	9	...........	-32768,00
	618	7,7375	7,17949E-001	9,61736E-005	0,00000E+000	7,18006E-001	0,00000E+000	9	...........	-32768,00
	621	7,775	7,20962E-001	9,42691E-005	0,00000E+000	7,21006E-001	0,00000E+000	9	...........	-32768,00
	624	7,8125	7,23951E-001	9,24748E-005	0,00000E+000	7,24006E-001	0,00000E+000	9	...........	-32768,00
	627	7,85	7,26929E-001	9,08503E-005	0,00000E+000	7,26994E-001	0,00000E+000	9	...........	-32768,00
	630	7,8875	7,29928E-001	8,94083E-005	0,00000E+000	7,29994E-001	0,00000E+000	9	...........	-32768,00
	633	7,925	7,32943E-001	8,78970E-005	0,00000E+000	7,32994E-001	0,00000E+000	9	...........	-32768,00
	636	7,9625	7,35953E-001	8,67242E-005	0,00000E+000	7,35995E-001	0,00000E+000	9	...........	-32768,00
	639	8	7,38946E-001	8,53752E-005	0,00000E+000	7,38995E-001	0,00000E+000	9	...........	-32768,00
	642	8,0375	7,41941E-001	8,43907E-005	0,00000E+000	7,41995E-001	0,00000E+000	9	...........	-32768,00
	645	8,075	7,44938E-001	8,33468E-005	0,00000E+000	7,44995E-001	0,00000E+000	9	...........	-32768,00
	648	8,1125	7,47951E-001	8,22045E-005	0,00000E+000	7,47996E-001	0,00000E+000	9	...........	-32768,00
	651	8,15	7,50936E-001	8,12801E-005	0,00000E+000	7,50996E-001	0,00000E+000	9	...........	-32768,00
	654	8,1875	7,53933E-001	8,02711E-005	0,00000E+000	7,53996E-001	0,00000E+000	8	...........	-32768,00
	657	8,225	7,56952E-001	7,95434E-005	0,00000E+000	7,56996E-001	0,00000E+000	8	...........	-32768,00
	660	8,2625	7,59936E-001	7,87559E-005	0,00000E+000	7,59997E-001	0,00000E+000	8	...........	-32768,00
	663	8,3	7,62952E-001	7,80751E-005	0,00000E+000	7,62997E-001	0,00000E+000	8	...........	-32768,00
	666	8,3375	7,65956E-001	7,74071E-005	0,00000E+000	7,65997E-001	0,00000E+000	8	...........	-32768,00
	669	8,375	7,68924E-001	7,67531E-005	0,00000E+000	7,68997E-001	0,00000E+000	8	...........	-32768,00
	672	8,4125	7,71946E-001	7,62906E-005	0,00000E+000	7,71998E-001	0,00000E+000	8	...........	-32768,00
	675	8,45	7,74954E-001	7,56469E-005	0,00000E+000	7,74998E-001	0,00000E+000	8	...........	-32768,00
	678	8,4875	7,77940E-001	7,51687E-005	0,00000E+000	7,77998E-001	0,00000E+000	8	...........	-32768,00
	681	8,525	7,80939E-001	7,46018E-005	0,00000E+000	7,80998E-001	0,00000E+000	8	...........	-32768,00
	684	8,5625	7,83952E-001	7,40217E-005	0,00000E+000	7,83999E-001	0,00000E+000	8	...........	-32768,00
	687	8,6	7,86959E-001	7,34937E-005	0,00000E+000	7,86999E-001	0,00000E+000	8	...........	-32768,00
	690	8,6375	7,89970E-001	7,31042E-005	0,00000E+000	7,89999E-001	0,00000E+000	8	...........	-32768,00
	693	8,675	7,92948E-001	7,26857E-005	0,00000E+000	7,92999E-001	0,00000E+000	8	...........	-32768,00
	696	8,7125	7,95959E-001	7,22699E-005	0,00000E+000	7,96000E-001	0,00000E+000	8	...........	-32768,00
	699	8,75	7,98964E-001	7,18913E-005	0,00000E+000	7,99000E-001	0,00000E+000	8	...........	-32768,00
	702	8,7875	7,97979E-001	6,99707E-005	0,00000E+000	7,98000E-001	0,00000E+000	8	...........	-32768,00
	705	8,825	7,94971E-001	6,77073E-005	0,00000E+000	7,94999E-001	0,00000E+000	8	...........	-32768,00
	708	8,8625	7,91947E-001	6,54191E-005	0,00000E+000	7,91999E-001	0,00000E+000	8	...........	-32768,00
	711	8,9	7,88956E-001	6,35277E-005	0,00000E+000	7,88999E-001	0,00000E+000	8	...........	-32768,00
	714	8,9375	7,85961E-001	6,14782E-005	0,00000E+000	7,85999E-001	0,00000E+000	8	...........	-32768,00
	717	8,975	7,82970E-001	5,96978E-005	0,00000E+000	7,82998E-001	0,00000E+000	8	...........	-32768,00
	720	9,0125	7,79958E-001	5,79848E-005	0,00000E+000	7,79998E-001	0,00000E+000	8	...........	-32768,00
	723	9,05	7,76946E-001	5,64410E-005	0,00000E+000	7,76998E-001	0,00000E+000	8	...........	-32768,00
	726	9,0875	7,73960E-001	5,49628E-005	0,00000E+000	7,73998E-001	0,00000E+000	8	...........	-32768,00
	729	9,125	7,70966E-001	5,35256E-005	0,00000E+000	7,70998E-001	0,00000E+000	8	...........	-32768,00
	732	9,1625	7,67926E-001	5,22173E-005	0,00000E+000	7,67997E-001	0,00000E+000	8	...........	-32768,00
	735	9,2	7,64935E-001	5,08610E-005	0,00000E+000	7,64997E-001	0,00000E+000	8	...........	-32768,00
	738	9,2375	7,61949E-001	4,97126E-005	0,00000E+000	7,61997E-001	0,00000E+000	8	...........	-32768,00
	741	9,275	7,58937E-001	4,84528E-005	0,00000E+000	7,58997E-001	0,00000E+000	8	...........	-32768,00
	744	9,3125	7,55934E-001	4,74500E-005	0,00000E+000	7,55996E-001	0,00000E+000	8	...........	-32768,00
	747	9,35	7,52938E-001	4,63796E-005	0,00000E+000	7,52996E-001	0,00000E+000	8	...........	-32768,00
	750	9,3875	7,49943E-001	4,53705E-005	0,00000E+000	7,49996E-001	0,00000E+000	8	...........	-32768,00
	753	9,425	7,46956E-001	4,44305E-005	0,00000E+000	7,46996E-001	0,00000E+000	8	...........	-32768,00
	756	9,4625	7,43951E-001	4,32674E-005	0,00000E+000	7,43995E-001	0,00000E+000	8	...........	-32768,00
	759	9,5	7,40931E-001	4,23908E-005	0,00000E+000	7,40995E-001	0,00000E+000	8	...........	-32768,00
	762	9,5375	7,37942E-001	4,16132E-005	0,00000E+000	7,37995E-001	0,00000E+000	8	...........	-32768,00
	765	9,575	7,34948E-001	4,08514E-005	0,00000E+000	7,34995E-001	0,00000E+000	8	...........	-32768,00
	768	9,6125	7,31946E-001	3,98772E-005	0,00000E+000	7,31994E-001	0,00000E+000	8	...........	-32768,00
	771	9,65	7,28933E-001	3,89303E-005	0,00000E+000	7,28994E-001	0,00000E+000	8	...........	-32768,00
	774	9,6875	7,25940E-001	3,81832E-005	0,00000E+000	7,25994E-001	0,00000E+000	8	...........	-32768,00
	777	9,725	7,22967E-001	3,72379E-005	0,00000E+000	7,23006E-001	0,00000E+000	8	...........	-32768,00
	780	9,7625	7,19952E-001	3,67094E-005	0,00000E+000	7,20006E-001	0,00000E+000	8	...........	-32768,00
	783	9,8	7,16920E-001	3,61788E-005	0,00000E+000	7,17006E-001	0,00000E+000	8	...........	-32768,00
	786	9,8375	7,13926E-001	3,53306E-005	0,00000E+000	7,14005E-001	0,00000E+000	8	...........	-32768,00
	789	9,875	7,10931E-001	3,47292E-005	0,00000E+000	7,11005E-001	0,00000E+000	8	...........	-32768,00
	792	9,9125	7,07935E-001	3,38767E-005	0,00000E+000	7,08005E-001	0,00000E+000	8	...........	-32768,00
	795	9,95	7,04925E-001	3,34190E-005	0,00000E+000	7,05005E-001	0,00000E+000	8	...........	-32768,00
	798	9,9875	7,01939E-001	3,23941E-005	0,00000E+000	7,02004E-001	0,00000E+000	8	...........	-32768,00
	801	10,025	6,98930E-001	3,19409E-005	0,00000E+000	6,99004E-001	0,00000E+000	8	...........	-32768,00
	804	10,0625	6,95933E-001	3,12326E-005	0,00000E+000	6,96004E-001	0,00000E+000	8	...........	-32768,00
	807	10,1	6,92939E-001	3,05514E-005	0,00000E+000	6,93004E-001	0,00000E+000	8	...........	-32768,00
	810	10,1375	6,89933E-001	3,00810E-005	0,00000E+000	6,90004E-001	0,00000E+000	8	...........	-32768,00
	813	10,175	6,86906E-001	2,94846E-005	0,00000E+000	6,87003E-001	0,00000E+000	8	...........	-32768,00
	816	10,2125	6,83935E-001	2,88322E-005	0,00000E+000	6,84003E-001	0,00000E+000	8	...........	-32768,00
	819	10,25	6,80930E-001	2,82939E-005	0,00000E+000	6,81003E-001	0,00000E+000	8	...........	-32768,00
	822	10,2875	6,77915E-001	2,77514E-005	0,00000E+000	6,78003E-001	0,00000E+000	8	...........	-32768,00
	825	10,325	6,74917E-001	2,72544E-005	0,00000E+000	6,75002E-001	0,00000E+000	8	...........	-32768,00
	828	10,3625	6,71905E-001	2,66728E-005	0,00000E+000	6,72002E-001	0,00000E+000	8	...........	-32768,00
	831	10,4	6,68913E-001	2,61531E-005	0,00000E+000	6,69002E-001	0,00000E+000	8	...........	-32768,00
	834	10,4375	6,65902E-001	2,56492E-005	0,00000E+000	6,66002E-001	0,00000E+000	8	...........	-32768,00
	837	10,475	6,62908E-001	2,51542E-005	0,00000E+000	6,63001E-001	0,00000E+000	8	...........	-32768,00
	840	10,5125	6,59910E-001	2,46723E-005	0,00000E+000	6,60001E-001	0,00000E+000	8	...........	-32768,00
	843	10,55	6,56907E-001	2,42018E-005	0,00000E+000	6,57001E-001	0,00000E+000	8	...........	-32768,00
	846	10,5875	6,53920E-001	2,37410E-005	0,00000E+000	6,54001E-001	0,00000E+000	8	...........	-32768,00
	849	10,625	6,50907E-001	2,32828E-005	0,00000E+000	6,51000E-001	0,00000E+000	8	...........	-32768,00
	852	10,6625	6,47913E-001	2,28252E-005	0,00000E+000	6,48000E-001	0,00000E+000	8	...........	-32768,00
	855	10,7	6,44909E-001	2,23810E-005	0,00000E+000	6,45000E-001	0,00000E+000	8	...........	-32768,00
	858	10,7375	6,41917E-001	2,19542E-005	0,00000E+000	6,42000E-001	0,00000E+000	8	...........	-32768,00
	861	10,775	6,38905E-001	2,15191E-005	0,00000E+000	6,38999E-001	0,00000E+000	8	...........	-32768,00
	864	10,8125	6,35906E-001	2,10859E-005	0,00000E+000	6,35999E-001	0,00000E+000	8	...........	-32768,00
	867	10,85	6,32909E-001	2,06648E-005	0,00000E+000	6,32999E-001	0,00000E+000	8	...........	-32768,00
	870	10,8875	6,29914E-001	2,02616E-005	0,00000E+000	6,29999E-001	0,00000E+000	8	...........	-32768,00
	873	10,925	6,26892E-001	1,98370E-005	0,00000E+000	6,26998E-001	0,00000E+000	8	...........	-32768,00
	876	10,9625	6,23900E-001	1,94432E-005	0,00000E+000	6,23998E-001	0,00000E+000	8	...........	-32768,00
	879	11	6,20889E-001	1,90372E-005	0,00000E+000	6,20998E-001	0,00000E+000	8	...........	-32768,00
	882	11,0375	6,17895E-001	1,86600E-005	0,00000E+000	6,17998E-001	0,00000E+000	8	...........	-32768,00
	885	11,075	6,14874E-001	1,82584E-005	0,00000E+000	6,14998E-001	0,00000E+000	8	...........	-32768,00
	888	11,1125	6,11876E-001	1,78709E-005	0,00000E+000	6,11997E-001	0,00000E+000	8	...........	-32768,00
	891	11,15	6,08879E-001	1,74930E-005	0,00000E+000	6,08997E-001	0,00000E+000	8	...........	-32768,00
	894	11,1875	6,05898E-001	1,71123E-005	0,00000E+000	6,05997E-001	0,00000E+000	8	...........	-32768,00
	897	11,225	6,02909E-001	1,67246E-005	0,00000E+000	6,02997E-001	0,00000E+000	8	...........	-32768,00
	900	11,2625	5,99866E-001	1,63461E-005	0,00000E+000	5,99996E-001	0,00000E+000	8	...........	-32768,00
	903	11,3	5,96887E-001	1,59692E-005	0,00000E+000	5,96996E-001	0,00000E+000	8	...........	-32768,00
	906	11,3375	5,93890E-001	1,56030E-005	0,00000E+000	5,93996E-001	0,00000E+000	8	...........	-32768,00
	909	11,375	5,90891E-001	1,52244E-005	0,00000E+000	5,90996E-001	0,00000E+000	8	...........	-32768,00
	912	11,4125	5,87881E-001	1,48574E-005	0,00000E+000	5,87995E-001	0,00000E+000	8	...........	-32768,00
	915	11,45	5,84883E-001	1,44899E-005	0,00000E+000	5,84995E-001	0,00000E+000	8	...........	-32768,00
	918	11,4875	5,81883E-001	1,41334E-005	0,00000E+000	5,81995E-001	0,00000E+000	8	...........	-32768,00
	921	11,525	5,78899E-001	1,37508E-005	0,00000E+000	5,78995E-001	0,00000E+000	8	...........	-32768,00
	924	11,5625	5,75864E-001	1,33882E-005	0,00000E+000	5,75994E-001	0,00000E+000	8	...........	-32768,00
	927	11,6	5,72863E-001	1,30205E-005	0,00000E+000	5,72994E-001	0,00000E+000	8	...........	-32768,00
	930	11,6375	5,69875E-001	1,26693E-005	0,00000E+000	5,69994E-001	0,00000E+000	8	...........	-32768,00
	933	11,675	5,66892E-001	1,22896E-005	0,00000E+000	5,67006E-001	0,00000E+000	8	...........	-32768,00
	936	11,7125	5,63873E-001	1,19400E-005	0,00000E+000	5,64006E-001	0,00000E+000	8	...........	-32768,00
	939	11,75	5,60883E-001	1,15743E-005	0,00000E+000	5,61006E-001	0,00000E+000	8	...........	-32768,00
	942	11,7875	5,57884E-001	1,12349E-005	0,00000E+000	5,58005E-001	0,00000E+000	8	...........	-32768,00
	945	11,825	5,54883E-001	1,08839E-005	0,00000E+000	5,55005E-001	0,00000E+000	8	...........	-32768,00
	948	11,8625	5,51885E-001	1,05499E-005	0,00000E+000	5,52005E-001	0,00000E+000	8	...........	-32768,00
	951	11,9	5,48882E-001	1,02273E-005	0,00000E+000	5,49005E-001	0,00000E+000	8	...........	-32768,00
	954	11,9375	5,45876E-001	9,91086E-006	0,00000E+000	5,46004E-001	0,00000E+000	8	...........	-32768,00
	957	11,975	5,42884E-001	9,59951E-006	0,00000E+000	5,43004E-001	0,00000E+000	8	...........	-32768,00
	960	12,0125	5,39894E-001	9,30325E-006	0,00000E+000	5,40004E-001	0,00000E+000	8	...........	-32768,00
	963	12,05	5,36877E-001	9,01722E-006	0,00000E+000	5,37004E-001	0,00000E+000	8	...........	-32768,00
	966	12,0875	5,33887E-001	8,74793E-006	0,00000E+000	5,34003E-001	0,00000E+000	8	...........	-32768,00
	969	12,125	5,30876E-001	8,46978E-006	0,00000E+000	5,31003E-001	0,00000E+000	8	...........	-32768,00
	972	12,1625	5,27877E-001	8,20949E-006	0,00000E+000	5,28003E-001	0,00000E+000	8	...........	-32768,00
	975	12,2	5,24850E-001	7,95317E-006	0,00000E+000	5,25003E-001	0,00000E+000	8	...........	-32768,00
	978	12,2375	5,21872E-001	7,71045E-006	0,00000E+000	5,22003E-001	0,00000E+000	8	...........	-32768,00
	981	12,275	5,18875E-001	7,44754E-006	0,00000E+000	5,19002E-001	0,00000E+000	8	...........	-32768,00
	984	12,3125	5,15871E-001	7,20674E-006	0,00000E+000	5,16002E-001	0,00000E+000	8	...........	-32768,00
	987	12,35	5,12900E-001	6,96166E-006	0,00000E+000	5,13002E-001	0,00000E+000	8	...........	-32768,00
	990	12,3875	5,09861E-001	6,72828E-006	0,00000E+000	5,10002E-001	0,00000E+000	8	...........	-32768,00
	993	12,425	5,06859E-001	6,47389E-006	0,00000E+000	5,07001E-001	0,00000E+000	8	...........	-32768,00
	996	12,4625	5,03867E-001	6,23002E-006	0,00000E+000	5,04001E-001	0,00000E+000	8	...........	-32768,00
	999	12,5	5,00884E-001	5,98289E-006	0,00000E+000	5,01001E-001	0,00000E+000	8	...........	-32768,00
	1002	12,5375	4,97845E-001	5,74523E-006	0,00000E+000	4,98001E-001	0,00000E+000	8	...........	-32768,00
	1005	12,575	4,94852E-001	5,47802E-006	0,00000E+000	4,95000E-001	0,00000E+000	8	...........	-32768,00
	1008	12,6125	4,91864E-001	5,21700E-006	0,00000E+000	4,92000E-001	0,00000E+000	8	...........	-32768,00
	1011	12,65	4,88893E-001	4,95094E-006	0,00000E+000	4,89000E-001	0,00000E+000	8	...........	-32768,00
	1014	12,6875	4,85854E-001	4,68814E-006	0,00000E+000	4,86000E-001	0,00000E+000	8	...........	-32768,00
	1017	12,725	4,82853E-001	4,39972E-006	0,00000E+000	4,82999E-001	0,00000E+000	8	...........	-32768,00
	1020	12,7625	4,79853E-001	4,11424E-006	0,00000E+000	4,79999E-001	0,00000E+000	8	...........	-32768,00
	1023	12,8	4,76858E-001	3,82351E-006	0,00000E+000	4,76999E-001	0,00000E+000	8	...........	-32768,00
	1026	12,8375	4,73854E-001	3,52489E-006	0,00000E+000	4,73999E-001	0,00000E+000	8	...........	-32768,00
	1029	12,875	4,70841E-001	3,19447E-006	0,00000E+000	4,70998E-001	0,00000E+000	8	...........	-32768,00
	1032	12,9125	4,67855E-001	2,85792E-006	0,00000E+000	4,67998E-001	0,00000E+000	8	...........	-32768,00
	1035	12,95	4,64865E-001	2,50189E-006	0,00000E+000	4,64998E-001	0,00000E+000	8	...........	-32768,00
	1038	12,9875	4,61862E-001	2,11717E-006	0,00000E+000	4,61998E-001	0,00000E+000	8	...........	-32768,00
	1041	13,025	4,58841E-001	1,64372E-006	0,00000E+000	4,58997E-001	0,00000E+000	8	...........	-32768,00
	1044	13,0625	4,55858E-001	1,07682E-006	0,00000E+000	4,55997E-001	0,00000E+000	8	...........	-32768,00
	1047	13,1	4,52852E-001	2,91170E-007	0,00000E+000	4,52997E-001	0,00000E+000	8	...........	-32768,00
	1050	13,1375	4,49866E-001	-8,67309E-007	0,00000E+000	4,49997E-001	0,00000E+000	8	...........	-32768,00
	1053	13,175	4,46846E-001	-2,61560E-006	0,00000E+000	4,46997E-001	0,00000E+000	8	...........	-32768,00
	1056	13,2125	4,43844E-001	-5,19597E-006	0,00000E+000	4,43996E-001	0,00000E+000	8	...........	-32768,00
	1059	13,25	4,40855E-001	-8,91521E-006	0,00000E+000	4,40996E-001	0,00000E+000	8	...........	-32768,00
	1062	13,2875	4,37864E-001	-1,40511E-005	0,00000E+000	4,37996E-001	0,00000E+000	8	...........	-32768,00
	1065	13,325	4,34835E-001	-2,08690E-005	0,00000E+000	4,34996E-001	0,00000E+000	8	...........	-32768,00
	1068	13,3625	4,31843E-001	-2,95538E-005	0,00000E+000	4,31995E-001	0,00000E+000	8	...........	-32768,00
	1071	13,4	4,28848E-001	-4,01714E-005	0,00000E+000	4,28995E-001	0,00000E+000	8	...........	-32768,00
	1074	13,4375	4,25857E-001	-5,26338E-005	0,00000E+000	4,25995E-001	0,00000E+000	8	...........	-32768,00
	1077	13,475	4,22841E-001	-6,66772E-005	0,00000E+000	4,22995E-001	0,00000E+000	8	...........	-32768,00
	1080	13,5125	4,19848E-001	-8,19425E-005	0,00000E+000	4,19994E-001	0,00000E+000	8	...........	-32768,00
	1083	13,55	4,16841E-001	-9,80716E-005	0,00000E+000	4,16994E-001	0,00000E+000	9	...........	-32768,00
	1086	13,5875	4,13843E-001	-1,14526E-004	0,00000E+000	4,13994E-001	0,00000E+000	9	...........	-32768,00
	1089	13,625	4,10856E-001	-1,30959E-004	0,00000E+000	4,11006E-001	0,00000E+000	9	...........	-32768,00
	1092	13,6625	4,07858E-001	-1,46998E-004	0,00000E+000	4,08006E-001	0,00000E+000	9	...........	-32768,00
	1095	13,7	4,04847E-001	-1,62372E-004	0,00000E+000	4,05006E-001	0,00000E+000	9	...........	-32768,00
	1098	13,7375	4,01875E-001	-1,76923E-004	0,00000E+000	4,02005E-001	0,00000E+000	9	...........	-32768,00
	1101	13,775	3,98872E-001	-1,90496E-004	0,00000E+000	3,99005E-001	0,00000E+000	9	...........	-32768,00
	1104	13,8125	3,95861E-001	-2,02907E-004	0,00000E+000	3,96005E-001	0,00000E+000	9	...........	-32768,00
	1107	13,85	3,92848E-001	-2,14148E-004	0,00000E+000	3,93005E-001	0,00000E+000	9	...........	-32768,00
	1110	13,8875	3,89857E-001	-2,24192E-004	0,00000E+000	3,90004E-001	0,00000E+000	9	...........	-32768,00
	1113	13,925	3,86867E-001	-2,32982E-004	0,00000E+000	3,87004E-001	0,00000E+000	9	...........	-32768,00
	1116	13,9625	3,83854E-001	-2,40572E-004	0,00000E+000	3,84004E-001	0,00000E+000	9	...........	-32768,00
	1119	14	3,80848E-001	-2,46955E-004	0,00000E+000	3,81004E-001	0,00000E+000	9	...........	-32768,00
	1122	14,0375	3,77862E-001	-2,52239E-004	0,00000E+000	3,78003E-001	0,00000E+000	9	...........	-32768,00
	1125	14,075	3,74862E-001	-2,56409E-004	0,00000E+000	3,75003E-001	0,00000E+000	9	...........	-32768,00
	1128	14,1125	3,71834E-001	-2,59558E-004	0,00000E+000	3,72003E-001	0,00000E+000	9	...........	-32768,00
	1131	14,15	3,68837E-001	-2,61684E-004	0,00000E+000	3,69003E-001	0,00000E+000	9	...........	-32768,00
	1134	14,1875	3,65854E-001	-2,62895E-004	0,00000E+000	3,66003E-001	0,00000E+000	9	...........	-32768,00
	1137	14,225	3,62846E-001	-2,63245E-004	0,00000E+000	3,63002E-001	0,00000E+000	9	...........	-32768,00
	1140	14,2625	3,59860E-001	-2,62847E-004	0,00000E+000	3,60002E-001	0,00000E+000	9	...........	-32768,00
	1143	14,3	3,56834E-001	-2,61723E-004	0,00000E+000	3,57002E-001	0,00000E+000	9	...........	-32768,00
	1146	14,3375	3,53845E-001	-2,59955E-004	0,00000E+000	3,54002E-001	0,00000E+000	9	...........	-32768,00
	1149	14,375	3,50833E-001	-2,57664E-004	0,00000E+000	3,51001E-001	0,00000E+000	9	...........	-32768,00
	1152	14,4125	3,47836E-001	-2,54828E-004	0,00000E+000	3,48001E-001	0,00000E+000	9	...........	-32768,00
	1155	14,45	3,44833E-001	-2,51599E-004	0,00000E+000	3,45001E-001	0,00000E+000	9	...........	-32768,00
	1158	14,4875	3,41848E-001	-2,48027E-004	0,00000E+000	3,42001E-001	0,00000E+000	9	...........	-32768,00
	1161	14,525	3,38846E-001	-2,44210E-004	0,00000E+000	3,39000E-001	0,00000E+000	9	...........	-32768,00
	1164	14,5625	3,35843E-001	-2,40166E-004	0,00000E+000	3,36000E-001	0,00000E+000	9	...........	-32768,00
	1167	14,6	3,32835E-001	-2,35915E-004	0,00000E+000	3,33000E-001	0,00000E+000	9	...........	-32768,00
	1170	14,6375	3,29825E-001	-2,31580E-004	0,00000E+000	3,30000E-001	0,00000E+000	9	...........	-32768,00
	1173	14,675	3,26834E-001	-2,27196E-004	0,00000E+000	3,26999E-001	0,00000E+000	9	...........	-32768,00
	1176	14,7125	3,23845E-001	-2,22711E-004	0,00000E+000	3,23999E-001	0,00000E+000	9	...........	-32768,00
	1179	14,75	3,20845E-001	-2,18273E-004	0,00000E+000	3,20999E-001	0,00000E+000	9	...........	-32768,00
	1182	14,7875	3,17831E-001	-2,13859E-004	0,00000E+000	3,17999E-001	0,00000E+000	9	...........	-32768,00
	1185	14,825	3,14831E-001	-2,09515E-004	0,00000E+000	3,14998E-001	0,00000E+000	9	...........	-32768,00
	1188	14,8625	3,11835E-001	-2,05258E-004	0,00000E+000	3,11998E-001	0,00000E+000	9	...........	-32768,00
	1191	14,9	3,08820E-001	-2,01074E-004	0,00000E+000	3,08998E-001	0,00000E+000	9	...........	-32768,00
	1194	14,9375	3,05814E-001	-1,96972E-004	0,00000E+000	3,05998E-001	0,00000E+000	9	...........	-32768,00
	1197	14,975	3,02815E-001	-1,93043E-004	0,00000E+000	3,02997E-001	0,00000E+000	9	...........	-32768,00
	1200	15,0125	2,99812E-001	-1,89159E-004	0,00000E+000	2,99997E-001	0,00000E+000	9	...........	-32768,00
	1203	15,05	2,96837E-001	-1,85425E-004	0,00000E+000	2,96997E-001	0,00000E+000	9	...........	-32768,00
	1206	15,0875	2,93813E-001	-1,81792E-004	0,00000E+000	2,93997E-001	0,00000E+000	9	...........	-32768,00
	1209	15,125	2,90813E-001	-1,78286E-004	0,00000E+000	2,90996E-001	0,00000E+000	9	...........	-32768,00
	1212	15,1625	2,87840E-001	-1,74881E-004	0,00000E+000	2,87996E-001	0,00000E+000	9	...........	-32768,00
	1215	15,2	2,84820E-001	-1,71610E-004	0,00000E+000	2,84996E-001	0,00000E+000	9	...........	-32768,00
	1218	15,2375	2,81812E-001	-1,68470E-004	0,00000E+000	2,81996E-001	0,00000E+000	9	...........	-32768,00
	1221	15,275	2,78810E-001	-1,65469E-004	0,00000E+000	2,78996E-001	0,00000E+000	9	...........	-32768,00
	1224	15,3125	2,75811E-001	-1,62573E-004	0,00000E+000	2,75995E-001	0,00000E+000	9	...........	-32768,00
	1227	15,35	2,72828E-001	-1,59722E-004	0,00000E+000	2,72995E-001	0,00000E+000	9	...........	-32768,00
	1230	15,3875	2,69830E-001	-1,57024E-004	0,00000E+000	2,69995E-001	0,00000E+000	9	...........	-32768,00
	1233	15,425	2,66805E-001	-1,54466E-004	0,00000E+000	2,66995E-001	0,00000E+000	9	...........	-32768,00
	1236	15,4625	2,63810E-001	-1,51920E-004	0,00000E+000	2,63994E-001	0,00000E+000	9	...........	-32768,00
	1239	15,5	2,60818E-001	-1,49523E-004	0,00000E+000	2,60994E-001	0,00000E+000	9	...........	-32768,00
	1242	15,5375	2,57824E-001	-1,47134E-004	0,00000E+000	2,57994E-001	0,00000E+000	9	...........	-32768,00
	1245	15,575	2,54820E-001	-1,44911E-004	0,00000E+000	2,55006E-001	0,00000E+000	9	...........	-32768,00
	1248	15,6125	2,51808E-001	-1,42749E-004	0,00000E+000	2,52006E-001	0,00000E+000	9	...........	-32768,00
	1251	15,65	2,48819E-001	-1,40641E-004	0,00000E+000	2,49006E-001	0,00000E+000	9	...........	-32768,00
	1254	15,6875	2,45826E-001	-1,38577E-004	0,00000E+000	2,46005E-001	0,00000E+000	9	...........	-32768,00
	1257	15,725	2,42804E-001	-1,36627E-004	0,00000E+000	2,43005E-001	0,00000E+000	9	...........	-32768,00
	1260	15,7625	2,39811E-001	-1,34817E-004	0,00000E+000	2,40005E-001	0,00000E+000	9	...........	-32768,00
	1263	15,8	2,36810E-001	-1,32994E-004	0,00000E+000	2,37005E-001	0,00000E+000	9	...........	-32768,00
	1266	15,8375	2,33826E-001	-1,31211E-004	0,00000E+000	2,34004E-001	0,00000E+000	9	...........	-32768,00
	1269	15,875	2,30831E-001	-1,29579E-004	0,00000E+000	2,31004E-001	0,00000E+000	9	...........	-32768,00
	1272	15,9125	2,27808E-001	-1,27927E-004	0,00000E+000	2,28004E-001	0,00000E+000	9	...........	-32768,00
	1275	15,95	2,24808E-001	-1,26359E-004	0,00000E+000	2,25004E-001	0,00000E+000	9	...........	-32768,00
	1278	15,9875	2,21827E-001	-1,24861E-004	0,00000E+000	2,22003E-001	0,00000E+000	9	...........	-32768,00
	1281	16,025	2,18826E-001	-1,23400E-004	0,00000E+000	2,19003E-001	0,00000E+000	9	...........	-32768,00
	1284	16,0625	2,15794E-001	-1,22025E-004	0,00000E+000	2,16003E-001	0,00000E+000	9	...........	-32768,00
	1287	16,1	2,12821E-001	-1,20692E-004	0,00000E+000	2,13003E-001	0,00000E+000	9	...........	-32768,00
	1290	16,1375	2,09825E-001	-1,19371E-004	0,00000E+000	2,10003E-001	0,00000E+000	9	...........	-32768,00
	1293	16,175	2,06800E-001	-1,18158E-004	0,00000E+000	2,07002E-001	0,00000E+000	9	...........	-32768,00
	1296	16,2125	2,03806E-001	-1,16999E-004	0,00000E+000	2,04002E-001	0,00000E+000	9	...........	-32768,00
	1299	16,25	2,00811E-001	-1,15819E-004	0,00000E+000	2,01002E-001	0,00000E+000	9	...........	-32768,00
	1302	16,2875	1,97806E-001	-1,14713E-004	0,00000E+000	1,98002E-001	0,00000E+000	9	...........	-32768,00
	1305	16,325	1,94807E-001	-1,13662E-004	0,00000E+000	1,95001E-001	0,00000E+000	9	...........	-32768,00
	1308	16,3625	1,91800E-001	-1,12640E-004	0,00000E+000	1,92001E-001	0,00000E+000	9	...........	-32768,00
	1311	16,4	1,88802E-001	-1,11661E-004	0,00000E+000	1,89001E-001	0,00000E+000	9	...........	-32768,00
	1314	16,4375	1,85805E-001	-1,10684E-004	0,00000E+000	1,86001E-001	0,00000E+000	9	...........	-32768,00
	1317	16,475	1,82807E-001	-1,09765E-004	0,00000E+000	1,83000E-001	0,00000E+000	9	...........	-32768,00
	1320	16,5125	1,79830E-001	-1,08911E-004	0,00000E+000	1,80000E-001	0,00000E+000	9	...........	-32768,00
	1323	16,55	1,76817E-001	-1,08042E-004	0,00000E+000	1,77000E-001	0,00000E+000	9	...........	-32768,00
	1326	16,5875	1,73809E-001	-1,07259E-004	0,00000E+000	1,74000E-001	0,00000E+000	9	...........	-32768,00
	1329	16,625	1,70815E-001	-1,06451E-004	0,00000E+000	1,70999E-001	0,00000E+000	9	...........	-32768,00
	1332	16,6625	1,67815E-001	-1,05680E-004	0,00000E+000	1,67999E-001	0,00000E+000	9	...........	-32768,00
	1335	16,7	1,64795E-001	-1,04923E-004	0,00000E+000	1,64999E-001	0,00000E+000	9	...........	-32768,00
	1338	16,7375	1,61803E-001	-1,04133E-004	0,00000E+000	1,61999E-001	0,00000E+000	9	...........	-32768,00
	1341	16,775	1,58802E-001	-1,03415E-004	0,00000E+000	1,58998E-001	0,00000E+000	9	...........	-32768,00
	1344	16,8125	1,55803E-001	-1,02746E-004	0,00000E+000	1,55998E-001	0,00000E+000	9	...........	-32768,00
	1347	16,85	1,52789E-001	-1,02046E-004	0,00000E+000	1,52998E-001	0,00000E+000	9	...........	-32768,00
	1350	16,8875	1,49794E-001	-1,01386E-004	0,00000E+000	1,49998E-001	0,00000E+000	9	...........	-32768,00
	1353	16,925	1,46794E-001	-1,00767E-004	0,00000E+000	1,46997E-001	0,00000E+000	9	...........	-32768,00
	1356	16,9625	1,43803E-001	-1,00191E-004	0,00000E+000	1,43997E-001	0,00000E+000	9	...........	-32768,00
	1359	17	1,40773E-001	-9,95831E-005	0,00000E+000	1,40997E-001	0,00000E+000	9	...........	-32768,00
	1362	17,0375	1,37791E-001	-9,89444E-005	0,00000E+000	1,37997E-001	0,00000E+000	9	...........	-32768,00
	1365	17,075	1,34797E-001	-9,83609E-005	0,00000E+000	1,34997E-001	0,00000E+000	9	...........	-32768,00
	1368	17,1125	1,31791E-001	-9,77836E-005	0,00000E+000	1,31996E-001	0,00000E+000	9	...........	-32768,00
	1371	17,15	1,28807E-001	-9,71176E-005	0,00000E+000	1,28996E-001	0,00000E+000	9	...........	-32768,00
	1374	17,1875	1,25792E-001	-9,64388E-005	0,00000E+000	1,25996E-001	0,00000E+000	9	...........	-32768,00
	1377	17,225	1,22790E-001	-9,57819E-005	0,00000E+000	1,22996E-001	0,00000E+000	9	...........	-32768,00
	1380	17,2625	1,19799E-001	-9,52845E-005	0,00000E+000	1,19995E-001	0,00000E+000	9	...........	-32768,00
	1383	17,3	1,16803E-001	-9,47932E-005	0,00000E+000	1,16995E-001	0,00000E+000	9	...........	-32768,00
	1386	17,3375	1,13778E-001	-9,42052E-005	0,00000E+000	1,13995E-001	0,00000E+000	9	...........	-32768,00
	1389	17,375	1,10784E-001	-9,35884E-005	0,00000E+000	1,10995E-001	0,00000E+000	9	...........	-32768,00
	1392	17,4125	1,07783E-001	-9,30078E-005	0,00000E+000	1,07994E-001	0,00000E+000	9	...........	-32768,00
	1395	17,45	1,04795E-001	-9,24712E-005	0,00000E+000	1,04994E-001	0,00000E+000	9	...........	-32768,00
	1398	17,4875	1,01793E-001	-9,19276E-005	0,00000E+000	1,01994E-001	0,00000E+000	9	...........	-32768,00
	1400	17,5125	9,97908E-002	-9,15461E-005	0,00000E+000	1,00006E-001	0,00000E+000	9	...........	-32768,00