File: HOPG_cv/3mM/AgNO3_HOPG_3mM_20mv_1_cv.DTA
EXPLAIN
TAG	CV
TITLE	LABEL	Cyclic Voltammetry	Test &Identifier
DATE	LABEL	30/4/2022	Date
TIME	LABEL	16:17:24	Time
NOTES	NOTES	2	&Notes...
	30/04/22 , 5mM  AgNO3

PSTAT	PSTAT	IFC1000-09004	Potentiostat
VINIT	POTEN	1,00000E-001	F	Initial &E (V)
VLIMIT1	POTEN	1,00000E-001	F	Scan Limit &1 (V)
VLIMIT2	POTEN	8,00000E-001	F	Scan Limit &2 (V)
VFINAL	POTEN	1,00000E-001	F	Final &E (V)
SCANRATE	QUANT	2,00000E+001	&Scan Rate (mV/s)
STEPSIZE	QUANT	1,00000E+000	St&ep Size (mV)
CYCLES	IQUANT	1	C&ycles (#)
IMODE	SELECTOR	0	I/E Range &Mode
IRANGE	QUANT	1,00000E-005	&Max Current (mA)
AREA	QUANT	1,00000E+000	Electrode &Area (cm^2)
ELECTRODETYPE	SELECTOR	0	Electrode Type
STRIPPING	TOGGLE	F	Used for Stripping
POLARITY	TOGGLE	F	Signal Polarity
CONDIT	TWOPARAM	F	1,50000E+001	0,00000E+000	Conditionin&g	Time(s)	E(V)
DELAY	TWOPARAM	F	3,00000E+001	0,00000E+000	Init. De&lay	Time(s)	Stab.(mV/s)
EQDELAY	QUANT	1,00000E+001	Equil. &Time (s)
IRCOMP	SELECTOR	0	IRCom&p
PFCOR	QUANT	5,00000E+001	PF Corr. (ohm)
SAMPLINGMODE	SELECTOR	1	Sampling &Mode
EOC	QUANT	0	Open Circuit (V)
PSTATMODEL	IQUANT	48	Pstat Model
PSTATSECTION	LABEL	IFC1000-09004	Pstat Section
PSTATSERIALNO	LABEL	09004	Pstat Serial Number
CTRLMODE	IQUANT	1	Control Mode
ELECTROMETER	IQUANT	0	RE=0 or CS=1
IESTAB	IQUANT	2	I/E Stability
CASPEED	IQUANT	4	Control Amp Speed
CONVENTION	IQUANT	1	Current Convention
ICHRANGE	IQUANT	2	Ich Range
ICHRANGEMODE	TOGGLE	F	Ich Auto Range
ICHOFFSETENABLE	TOGGLE	F	Ich Offset Enable
ICHOFFSET	QUANT	0	Ich Offset (V)
ICHFILTER	IQUANT	3	Ich Filter
VCHRANGE	IQUANT	2	Vch Range
VCHRANGEMODE	TOGGLE	F	Vch Auto Range
VCHOFFSETENABLE	TOGGLE	F	Vch Offset Enable
VCHOFFSET	QUANT	0	Vch Offset (V)
VCHFILTER	IQUANT	3	Vch Filter
IERANGELOWERLIMIT	IQUANT	4	I/E Range Lower Limit
IERANGEMODE	TOGGLE	T	I/E AutoRange
IERANGE	IQUANT	5	I/E Range
ACHSELECT	IQUANT	0	Ach Select
ACHRANGE	IQUANT	2	Ach Range
ACHOFFSETENABLE	TOGGLE	F	Ach Offset Enable
ACHOFFSET	QUANT	0	Ach Offset (V)
ACHFILTER	IQUANT	1	Ach Filter
CABLEID	IQUANT	14	Cable ID
DCCALDATE	LABEL	3/18/2022	DC Calibration Date
ACCALDATE	LABEL	3/10/2016	AC Calibration Date
FRAMEWORKVERSION	QUANT	7,05	Framework Version
INSTRUMENTVERSION	LABEL	4.21	Instrument Version
CURVE1	TABLE
	Pt	T	Vf	Im	Vu	Sig	Ach	IERange	Over	Temp
	#	s	V vs. Ref.	A	V	V	V	#	bits	deg C
	0	0,05	9,98240E-002	-1,09478E-005	0,00000E+000	1,00006E-001	0,00000E+000	7	....ih..i..	-32768,00
	3	0,2	1,02775E-001	-3,06667E-005	0,00000E+000	1,02994E-001	0,00000E+000	8	...........	-32768,00
	6	0,35	1,05785E-001	-3,01488E-005	0,00000E+000	1,05994E-001	0,00000E+000	8	...........	-32768,00
	9	0,5	1,08782E-001	-2,96933E-005	0,00000E+000	1,08994E-001	0,00000E+000	8	...........	-32768,00
	12	0,65	1,11789E-001	-2,93055E-005	0,00000E+000	1,11995E-001	0,00000E+000	8	...........	-32768,00
	15	0,8	1,14769E-001	-2,89518E-005	0,00000E+000	1,14995E-001	0,00000E+000	8	...........	-32768,00
	18	0,95	1,17800E-001	-2,85476E-005	0,00000E+000	1,17995E-001	0,00000E+000	8	...........	-32768,00
	21	1,1	1,20799E-001	-2,82375E-005	0,00000E+000	1,20995E-001	0,00000E+000	8	...........	-32768,00
	24	1,25	1,23783E-001	-2,78991E-005	0,00000E+000	1,23996E-001	0,00000E+000	8	...........	-32768,00
	27	1,4	1,26789E-001	-2,76048E-005	0,00000E+000	1,26996E-001	0,00000E+000	8	...........	-32768,00
	30	1,55	1,29811E-001	-2,73120E-005	0,00000E+000	1,29996E-001	0,00000E+000	8	...........	-32768,00
	33	1,7	1,32797E-001	-2,70296E-005	0,00000E+000	1,32996E-001	0,00000E+000	8	...........	-32768,00
	36	1,85	1,35801E-001	-2,67353E-005	0,00000E+000	1,35997E-001	0,00000E+000	8	...........	-32768,00
	39	2	1,38790E-001	-2,64507E-005	0,00000E+000	1,38997E-001	0,00000E+000	8	...........	-32768,00
	42	2,15	1,41807E-001	-2,61776E-005	0,00000E+000	1,41997E-001	0,00000E+000	8	...........	-32768,00
	45	2,3	1,44804E-001	-2,58897E-005	0,00000E+000	1,44997E-001	0,00000E+000	8	...........	-32768,00
	48	2,45	1,47795E-001	-2,56507E-005	0,00000E+000	1,47998E-001	0,00000E+000	8	...........	-32768,00
	51	2,6	1,50785E-001	-2,53955E-005	0,00000E+000	1,50998E-001	0,00000E+000	8	...........	-32768,00
	54	2,75	1,53792E-001	-2,51657E-005	0,00000E+000	1,53998E-001	0,00000E+000	8	...........	-32768,00
	57	2,9	1,56812E-001	-2,49358E-005	0,00000E+000	1,56998E-001	0,00000E+000	8	...........	-32768,00
	60	3,05	1,59802E-001	-2,47053E-005	0,00000E+000	1,59999E-001	0,00000E+000	8	...........	-32768,00
	63	3,2	1,62807E-001	-2,45084E-005	0,00000E+000	1,62999E-001	0,00000E+000	8	...........	-32768,00
	66	3,35	1,65793E-001	-2,42973E-005	0,00000E+000	1,65999E-001	0,00000E+000	8	...........	-32768,00
	69	3,5	1,68826E-001	-2,40755E-005	0,00000E+000	1,68999E-001	0,00000E+000	8	...........	-32768,00
	72	3,65	1,71815E-001	-2,38769E-005	0,00000E+000	1,71999E-001	0,00000E+000	8	...........	-32768,00
	75	3,8	1,74802E-001	-2,36637E-005	0,00000E+000	1,75000E-001	0,00000E+000	8	...........	-32768,00
	78	3,95	1,77791E-001	-2,34651E-005	0,00000E+000	1,78000E-001	0,00000E+000	8	...........	-32768,00
	81	4,1	1,80829E-001	-2,32850E-005	0,00000E+000	1,81000E-001	0,00000E+000	8	...........	-32768,00
	84	4,25	1,83821E-001	-2,31008E-005	0,00000E+000	1,84000E-001	0,00000E+000	8	...........	-32768,00
	87	4,4	1,86818E-001	-2,29312E-005	0,00000E+000	1,87001E-001	0,00000E+000	8	...........	-32768,00
	90	4,55	1,89804E-001	-2,27436E-005	0,00000E+000	1,90001E-001	0,00000E+000	8	...........	-32768,00
	93	4,7	1,92827E-001	-2,25635E-005	0,00000E+000	1,93001E-001	0,00000E+000	8	...........	-32768,00
	96	4,85	1,95831E-001	-2,23781E-005	0,00000E+000	1,96001E-001	0,00000E+000	8	...........	-32768,00
	99	5	1,98806E-001	-2,22009E-005	0,00000E+000	1,99002E-001	0,00000E+000	8	...........	-32768,00
	102	5,15	2,01815E-001	-2,20276E-005	0,00000E+000	2,02002E-001	0,00000E+000	8	...........	-32768,00
	105	5,3	2,04800E-001	-2,18632E-005	0,00000E+000	2,05002E-001	0,00000E+000	8	...........	-32768,00
	108	5,45	2,07815E-001	-2,17036E-005	0,00000E+000	2,08002E-001	0,00000E+000	8	...........	-32768,00
	111	5,6	2,10814E-001	-2,15424E-005	0,00000E+000	2,11003E-001	0,00000E+000	8	...........	-32768,00
	114	5,75	2,13819E-001	-2,13793E-005	0,00000E+000	2,14003E-001	0,00000E+000	8	...........	-32768,00
	117	5,9	2,16803E-001	-2,12176E-005	0,00000E+000	2,17003E-001	0,00000E+000	8	...........	-32768,00
	120	6,05	2,19818E-001	-2,10700E-005	0,00000E+000	2,20003E-001	0,00000E+000	8	...........	-32768,00
	123	6,2	2,22825E-001	-2,09043E-005	0,00000E+000	2,23004E-001	0,00000E+000	8	...........	-32768,00
	126	6,35	2,25815E-001	-2,07493E-005	0,00000E+000	2,26004E-001	0,00000E+000	8	...........	-32768,00
	129	6,5	2,28808E-001	-2,05969E-005	0,00000E+000	2,29004E-001	0,00000E+000	8	...........	-32768,00
	132	6,65	2,31829E-001	-2,04544E-005	0,00000E+000	2,32004E-001	0,00000E+000	8	...........	-32768,00
	135	6,8	2,34825E-001	-2,03029E-005	0,00000E+000	2,35005E-001	0,00000E+000	8	...........	-32768,00
	138	6,95	2,37826E-001	-2,01460E-005	0,00000E+000	2,38005E-001	0,00000E+000	8	...........	-32768,00
	141	7,1	2,40818E-001	-2,00094E-005	0,00000E+000	2,41005E-001	0,00000E+000	8	...........	-32768,00
	144	7,25	2,43826E-001	-1,98515E-005	0,00000E+000	2,44005E-001	0,00000E+000	8	...........	-32768,00
	147	7,4	2,46812E-001	-1,97102E-005	0,00000E+000	2,47005E-001	0,00000E+000	8	...........	-32768,00
	150	7,55	2,49810E-001	-1,95661E-005	0,00000E+000	2,50006E-001	0,00000E+000	8	...........	-32768,00
	153	7,7	2,52810E-001	-1,94318E-005	0,00000E+000	2,53006E-001	0,00000E+000	8	...........	-32768,00
	156	7,85	2,55824E-001	-1,92786E-005	0,00000E+000	2,56006E-001	0,00000E+000	8	...........	-32768,00
	159	8	2,58823E-001	-1,91336E-005	0,00000E+000	2,58994E-001	0,00000E+000	8	...........	-32768,00
	162	8,15	2,61818E-001	-1,89974E-005	0,00000E+000	2,61994E-001	0,00000E+000	8	...........	-32768,00
	165	8,3	2,64818E-001	-1,88627E-005	0,00000E+000	2,64994E-001	0,00000E+000	8	...........	-32768,00
	168	8,45	2,67813E-001	-1,87082E-005	0,00000E+000	2,67995E-001	0,00000E+000	8	...........	-32768,00
	171	8,6	2,70816E-001	-1,85690E-005	0,00000E+000	2,70995E-001	0,00000E+000	8	...........	-32768,00
	174	8,75	2,73822E-001	-1,84191E-005	0,00000E+000	2,73995E-001	0,00000E+000	8	...........	-32768,00
	177	8,9	2,76810E-001	-1,82837E-005	0,00000E+000	2,76995E-001	0,00000E+000	8	...........	-32768,00
	180	9,05	2,79811E-001	-1,81315E-005	0,00000E+000	2,79996E-001	0,00000E+000	8	...........	-32768,00
	183	9,2	2,82842E-001	-1,79857E-005	0,00000E+000	2,82996E-001	0,00000E+000	8	...........	-32768,00
	186	9,35	2,85830E-001	-1,78385E-005	0,00000E+000	2,85996E-001	0,00000E+000	8	...........	-32768,00
	189	9,5	2,88818E-001	-1,76882E-005	0,00000E+000	2,88996E-001	0,00000E+000	8	...........	-32768,00
	192	9,65	2,91813E-001	-1,75300E-005	0,00000E+000	2,91997E-001	0,00000E+000	8	...........	-32768,00
	195	9,8	2,94809E-001	-1,73785E-005	0,00000E+000	2,94997E-001	0,00000E+000	8	...........	-32768,00
	198	9,95	2,97833E-001	-1,72351E-005	0,00000E+000	2,97997E-001	0,00000E+000	8	...........	-32768,00
	201	10,1	3,00808E-001	-1,70606E-005	0,00000E+000	3,00997E-001	0,00000E+000	8	...........	-32768,00
	204	10,25	3,03820E-001	-1,69071E-005	0,00000E+000	3,03998E-001	0,00000E+000	8	...........	-32768,00
	207	10,4	3,06820E-001	-1,67302E-005	0,00000E+000	3,06998E-001	0,00000E+000	8	...........	-32768,00
	210	10,55	3,09832E-001	-1,65531E-005	0,00000E+000	3,09998E-001	0,00000E+000	8	...........	-32768,00
	213	10,7	3,12842E-001	-1,63774E-005	0,00000E+000	3,12998E-001	0,00000E+000	8	...........	-32768,00
	216	10,85	3,15822E-001	-1,61849E-005	0,00000E+000	3,15998E-001	0,00000E+000	8	...........	-32768,00
	219	11	3,18820E-001	-1,59756E-005	0,00000E+000	3,18999E-001	0,00000E+000	8	...........	-32768,00
	222	11,15	3,21846E-001	-1,57623E-005	0,00000E+000	3,21999E-001	0,00000E+000	8	...........	-32768,00
	225	11,3	3,24830E-001	-1,55260E-005	0,00000E+000	3,24999E-001	0,00000E+000	8	...........	-32768,00
	228	11,45	3,27835E-001	-1,52461E-005	0,00000E+000	3,27999E-001	0,00000E+000	8	...........	-32768,00
	231	11,6	3,30832E-001	-1,49368E-005	0,00000E+000	3,31000E-001	0,00000E+000	8	...........	-32768,00
	234	11,75	3,33848E-001	-1,45961E-005	0,00000E+000	3,34000E-001	0,00000E+000	8	...........	-32768,00
	237	11,9	3,36839E-001	-1,42472E-005	0,00000E+000	3,37000E-001	0,00000E+000	8	...........	-32768,00
	240	12,05	3,39830E-001	-1,39000E-005	0,00000E+000	3,40000E-001	0,00000E+000	8	...........	-32768,00
	243	12,2	3,42834E-001	-1,35739E-005	0,00000E+000	3,43001E-001	0,00000E+000	8	...........	-32768,00
	246	12,35	3,45828E-001	-1,32392E-005	0,00000E+000	3,46001E-001	0,00000E+000	8	...........	-32768,00
	249	12,5	3,48836E-001	-1,29089E-005	0,00000E+000	3,49001E-001	0,00000E+000	8	...........	-32768,00
	252	12,65	3,51828E-001	-1,25481E-005	0,00000E+000	3,52001E-001	0,00000E+000	8	...........	-32768,00
	255	12,8	3,54834E-001	-1,21791E-005	0,00000E+000	3,55002E-001	0,00000E+000	8	...........	-32768,00
	258	12,95	3,57834E-001	-1,17885E-005	0,00000E+000	3,58002E-001	0,00000E+000	8	...........	-32768,00
	261	13,1	3,60850E-001	-1,13864E-005	0,00000E+000	3,61002E-001	0,00000E+000	8	...........	-32768,00
	264	13,25	3,63840E-001	-1,09574E-005	0,00000E+000	3,64002E-001	0,00000E+000	8	...........	-32768,00
	267	13,4	3,66839E-001	-1,05090E-005	0,00000E+000	3,67003E-001	0,00000E+000	8	...........	-32768,00
	270	13,55	3,69835E-001	-1,00278E-005	0,00000E+000	3,70003E-001	0,00000E+000	8	...........	-32768,00
	273	13,7	3,72867E-001	-9,50821E-006	0,00000E+000	3,73003E-001	0,00000E+000	8	...........	-32768,00
	276	13,85	3,75857E-001	-8,97672E-006	0,00000E+000	3,76003E-001	0,00000E+000	8	...........	-32768,00
	279	14	3,78857E-001	-8,37150E-006	0,00000E+000	3,79004E-001	0,00000E+000	8	...........	-32768,00
	282	14,15	3,81864E-001	-7,74162E-006	0,00000E+000	3,82004E-001	0,00000E+000	7	...........	-32768,00
	285	14,3	3,84872E-001	-7,06013E-006	0,00000E+000	3,85004E-001	0,00000E+000	7	...........	-32768,00
	288	14,45	3,87866E-001	-6,33250E-006	0,00000E+000	3,88004E-001	0,00000E+000	7	...........	-32768,00
	291	14,6	3,90861E-001	-5,55007E-006	0,00000E+000	3,91005E-001	0,00000E+000	7	...........	-32768,00
	294	14,75	3,93846E-001	-4,71509E-006	0,00000E+000	3,94005E-001	0,00000E+000	7	...........	-32768,00
	297	14,9	3,96847E-001	-3,83655E-006	0,00000E+000	3,97005E-001	0,00000E+000	7	...........	-32768,00
	300	15,05	3,99858E-001	-2,89614E-006	0,00000E+000	4,00005E-001	0,00000E+000	7	...........	-32768,00
	303	15,2	4,02865E-001	-1,93062E-006	0,00000E+000	4,03005E-001	0,00000E+000	7	...........	-32768,00
	306	15,35	4,05852E-001	-9,26638E-007	0,00000E+000	4,06006E-001	0,00000E+000	7	...........	-32768,00
	309	15,5	4,08843E-001	1,14029E-007	0,00000E+000	4,09006E-001	0,00000E+000	7	...........	-32768,00
	312	15,65	4,11855E-001	1,17353E-006	0,00000E+000	4,12006E-001	0,00000E+000	7	...........	-32768,00
	315	15,8	4,14826E-001	2,24837E-006	0,00000E+000	4,14994E-001	0,00000E+000	7	...........	-32768,00
	318	15,95	4,17824E-001	3,37416E-006	0,00000E+000	4,17994E-001	0,00000E+000	7	...........	-32768,00
	321	16,1	4,20839E-001	4,49326E-006	0,00000E+000	4,20994E-001	0,00000E+000	7	...........	-32768,00
	324	16,25	4,23857E-001	5,63894E-006	0,00000E+000	4,23995E-001	0,00000E+000	7	...........	-32768,00
	327	16,4	4,26844E-001	6,80616E-006	0,00000E+000	4,26995E-001	0,00000E+000	7	...........	-32768,00
	330	16,55	4,29841E-001	7,99064E-006	0,00000E+000	4,29995E-001	0,00000E+000	7	...........	-32768,00
	333	16,7	4,32830E-001	9,17936E-006	0,00000E+000	4,32995E-001	0,00000E+000	7	...........	-32768,00
	336	16,85	4,35848E-001	1,04100E-005	0,00000E+000	4,35996E-001	0,00000E+000	8	...........	-32768,00
	339	17	4,38853E-001	1,16517E-005	0,00000E+000	4,38996E-001	0,00000E+000	8	...........	-32768,00
	342	17,15	4,41857E-001	1,29353E-005	0,00000E+000	4,41996E-001	0,00000E+000	8	...........	-32768,00
	345	17,3	4,44837E-001	1,42702E-005	0,00000E+000	4,44996E-001	0,00000E+000	8	...........	-32768,00
	348	17,45	4,47839E-001	1,56732E-005	0,00000E+000	4,47997E-001	0,00000E+000	8	...........	-32768,00
	351	17,6	4,50851E-001	1,71468E-005	0,00000E+000	4,50997E-001	0,00000E+000	8	...........	-32768,00
	354	17,75	4,53856E-001	1,87513E-005	0,00000E+000	4,53997E-001	0,00000E+000	8	...........	-32768,00
	357	17,9	4,56854E-001	2,04982E-005	0,00000E+000	4,56997E-001	0,00000E+000	8	...........	-32768,00
	360	18,05	4,59840E-001	2,23808E-005	0,00000E+000	4,59998E-001	0,00000E+000	8	...........	-32768,00
	363	18,2	4,62852E-001	2,44097E-005	0,00000E+000	4,62998E-001	0,00000E+000	8	...........	-32768,00
	366	18,35	4,65866E-001	2,65890E-005	0,00000E+000	4,65998E-001	0,00000E+000	8	...........	-32768,00
	369	18,5	4,68853E-001	2,89985E-005	0,00000E+000	4,68998E-001	0,00000E+000	8	...........	-32768,00
	372	18,65	4,71845E-001	3,15971E-005	0,00000E+000	4,71999E-001	0,00000E+000	8	...........	-32768,00
	375	18,8	4,74870E-001	3,43883E-005	0,00000E+000	4,74999E-001	0,00000E+000	8	...........	-32768,00
	378	18,95	4,77870E-001	3,73726E-005	0,00000E+000	4,77999E-001	0,00000E+000	8	...........	-32768,00
	381	19,1	4,80848E-001	4,06106E-005	0,00000E+000	4,80999E-001	0,00000E+000	8	...........	-32768,00
	384	19,25	4,83853E-001	4,40827E-005	0,00000E+000	4,83999E-001	0,00000E+000	8	...........	-32768,00
	387	19,4	4,86866E-001	4,77666E-005	0,00000E+000	4,87000E-001	0,00000E+000	8	...........	-32768,00
	390	19,55	4,89859E-001	5,17083E-005	0,00000E+000	4,90000E-001	0,00000E+000	8	...........	-32768,00
	393	19,7	4,92857E-001	5,58698E-005	0,00000E+000	4,93000E-001	0,00000E+000	8	...........	-32768,00
	396	19,85	4,95851E-001	6,02546E-005	0,00000E+000	4,96000E-001	0,00000E+000	8	...........	-32768,00
	399	20	4,98847E-001	6,45856E-005	0,00000E+000	4,99001E-001	0,00000E+000	8	...........	-32768,00
	402	20,15	5,01869E-001	6,95785E-005	0,00000E+000	5,02001E-001	0,00000E+000	8	...........	-32768,00
	405	20,3	5,04869E-001	7,48019E-005	0,00000E+000	5,05001E-001	0,00000E+000	8	...........	-32768,00
	408	20,45	5,07853E-001	8,02461E-005	0,00000E+000	5,08001E-001	0,00000E+000	8	...........	-32768,00
	411	20,6	5,10847E-001	8,59776E-005	0,00000E+000	5,11002E-001	0,00000E+000	8	...........	-32768,00
	414	20,75	5,13891E-001	9,17653E-005	0,00000E+000	5,14002E-001	0,00000E+000	9	...........	-32768,00
	417	20,9	5,16881E-001	9,81041E-005	0,00000E+000	5,17002E-001	0,00000E+000	9	...........	-32768,00
	420	21,05	5,19884E-001	1,04651E-004	0,00000E+000	5,20002E-001	0,00000E+000	9	...........	-32768,00
	423	21,2	5,22877E-001	1,11530E-004	0,00000E+000	5,23003E-001	0,00000E+000	9	...........	-32768,00
	426	21,35	5,25895E-001	1,18676E-004	0,00000E+000	5,26003E-001	0,00000E+000	9	...........	-32768,00
	429	21,5	5,28882E-001	1,25993E-004	0,00000E+000	5,29003E-001	0,00000E+000	9	...........	-32768,00
	432	21,65	5,31887E-001	1,33695E-004	0,00000E+000	5,32003E-001	0,00000E+000	9	...........	-32768,00
	435	21,8	5,34882E-001	1,41749E-004	0,00000E+000	5,35004E-001	0,00000E+000	9	...........	-32768,00
	438	21,95	5,37880E-001	1,50262E-004	0,00000E+000	5,38004E-001	0,00000E+000	9	...........	-32768,00
	441	22,1	5,40896E-001	1,58931E-004	0,00000E+000	5,41004E-001	0,00000E+000	9	...........	-32768,00
	444	22,25	5,43888E-001	1,67904E-004	0,00000E+000	5,44004E-001	0,00000E+000	9	...........	-32768,00
	447	22,4	5,46895E-001	1,76810E-004	0,00000E+000	5,47005E-001	0,00000E+000	9	...........	-32768,00
	450	22,55	5,49893E-001	1,85827E-004	0,00000E+000	5,50005E-001	0,00000E+000	9	...........	-32768,00
	453	22,7	5,52885E-001	1,95164E-004	0,00000E+000	5,53005E-001	0,00000E+000	9	...........	-32768,00
	456	22,85	5,55882E-001	2,04637E-004	0,00000E+000	5,56005E-001	0,00000E+000	9	...........	-32768,00
	459	23	5,58876E-001	2,14090E-004	0,00000E+000	5,59005E-001	0,00000E+000	9	...........	-32768,00
	462	23,15	5,61887E-001	2,23011E-004	0,00000E+000	5,62006E-001	0,00000E+000	9	...........	-32768,00
	465	23,3	5,64912E-001	2,32007E-004	0,00000E+000	5,65006E-001	0,00000E+000	9	...........	-32768,00
	468	23,45	5,67899E-001	2,40717E-004	0,00000E+000	5,68006E-001	0,00000E+000	9	...........	-32768,00
	471	23,6	5,70873E-001	2,48791E-004	0,00000E+000	5,70994E-001	0,00000E+000	9	...........	-32768,00
	474	23,75	5,73880E-001	2,56115E-004	0,00000E+000	5,73994E-001	0,00000E+000	9	...........	-32768,00
	477	23,9	5,76867E-001	2,62401E-004	0,00000E+000	5,76994E-001	0,00000E+000	9	...........	-32768,00
	480	24,05	5,79892E-001	2,67433E-004	0,00000E+000	5,79995E-001	0,00000E+000	9	...........	-32768,00
	483	24,2	5,82888E-001	2,70529E-004	0,00000E+000	5,82995E-001	0,00000E+000	9	...........	-32768,00
	486	24,35	5,85872E-001	2,72274E-004	0,00000E+000	5,85995E-001	0,00000E+000	9	...........	-32768,00
	489	24,5	5,88873E-001	2,70488E-004	0,00000E+000	5,88995E-001	0,00000E+000	9	...........	-32768,00
	492	24,65	5,91892E-001	2,65054E-004	0,00000E+000	5,91996E-001	0,00000E+000	9	...........	-32768,00
	495	24,8	5,94887E-001	2,55295E-004	0,00000E+000	5,94996E-001	0,00000E+000	9	...........	-32768,00
	498	24,95	5,97891E-001	2,39929E-004	0,00000E+000	5,97996E-001	0,00000E+000	9	...........	-32768,00
	501	25,1	6,00886E-001	2,18082E-004	0,00000E+000	6,00996E-001	0,00000E+000	9	...........	-32768,00
	504	25,25	6,03905E-001	1,89541E-004	0,00000E+000	6,03997E-001	0,00000E+000	9	...........	-32768,00
	507	25,4	6,06894E-001	1,55198E-004	0,00000E+000	6,06997E-001	0,00000E+000	9	...........	-32768,00
	510	25,55	6,09893E-001	1,17912E-004	0,00000E+000	6,09997E-001	0,00000E+000	9	...........	-32768,00
	513	25,7	6,12898E-001	8,81726E-005	0,00000E+000	6,12997E-001	0,00000E+000	9	...........	-32768,00
	516	25,85	6,15910E-001	7,55514E-005	0,00000E+000	6,15998E-001	0,00000E+000	8	...........	-32768,00
	519	26	6,18901E-001	6,99714E-005	0,00000E+000	6,18998E-001	0,00000E+000	8	...........	-32768,00
	522	26,15	6,21890E-001	6,60638E-005	0,00000E+000	6,21998E-001	0,00000E+000	8	...........	-32768,00
	525	26,3	6,24883E-001	6,30670E-005	0,00000E+000	6,24998E-001	0,00000E+000	8	...........	-32768,00
	528	26,45	6,27890E-001	6,07095E-005	0,00000E+000	6,27999E-001	0,00000E+000	8	...........	-32768,00
	531	26,6	6,30910E-001	5,87951E-005	0,00000E+000	6,30999E-001	0,00000E+000	8	...........	-32768,00
	534	26,75	6,33903E-001	5,72459E-005	0,00000E+000	6,33999E-001	0,00000E+000	8	...........	-32768,00
	537	26,9	6,36906E-001	5,59144E-005	0,00000E+000	6,36999E-001	0,00000E+000	8	...........	-32768,00
	540	27,05	6,39898E-001	5,47948E-005	0,00000E+000	6,40000E-001	0,00000E+000	8	...........	-32768,00
	543	27,2	6,42927E-001	5,37667E-005	0,00000E+000	6,43000E-001	0,00000E+000	8	...........	-32768,00
	546	27,35	6,45904E-001	5,28708E-005	0,00000E+000	6,46000E-001	0,00000E+000	8	...........	-32768,00
	549	27,5	6,48905E-001	5,20670E-005	0,00000E+000	6,49000E-001	0,00000E+000	8	...........	-32768,00
	552	27,65	6,51898E-001	5,12835E-005	0,00000E+000	6,52000E-001	0,00000E+000	8	...........	-32768,00
	555	27,8	6,54909E-001	5,05843E-005	0,00000E+000	6,55001E-001	0,00000E+000	8	...........	-32768,00
	558	27,95	6,57909E-001	5,00060E-005	0,00000E+000	6,58001E-001	0,00000E+000	8	...........	-32768,00
	561	28,1	6,60903E-001	4,95291E-005	0,00000E+000	6,61001E-001	0,00000E+000	8	...........	-32768,00
	564	28,25	6,63899E-001	4,90681E-005	0,00000E+000	6,64001E-001	0,00000E+000	8	...........	-32768,00
	567	28,4	6,66919E-001	4,86463E-005	0,00000E+000	6,67002E-001	0,00000E+000	8	...........	-32768,00
	570	28,55	6,69923E-001	4,82916E-005	0,00000E+000	6,70002E-001	0,00000E+000	8	...........	-32768,00
	573	28,7	6,72916E-001	4,79452E-005	0,00000E+000	6,73002E-001	0,00000E+000	8	...........	-32768,00
	576	28,85	6,75904E-001	4,76680E-005	0,00000E+000	6,76002E-001	0,00000E+000	8	...........	-32768,00
	579	29	6,78909E-001	4,74076E-005	0,00000E+000	6,79003E-001	0,00000E+000	8	...........	-32768,00
	582	29,15	6,81921E-001	4,71346E-005	0,00000E+000	6,82003E-001	0,00000E+000	8	...........	-32768,00
	585	29,3	6,84928E-001	4,69429E-005	0,00000E+000	6,85003E-001	0,00000E+000	8	...........	-32768,00
	588	29,45	6,87905E-001	4,67676E-005	0,00000E+000	6,88003E-001	0,00000E+000	8	...........	-32768,00
	591	29,6	6,90923E-001	4,66004E-005	0,00000E+000	6,91004E-001	0,00000E+000	8	...........	-32768,00
	594	29,75	6,93940E-001	4,64463E-005	0,00000E+000	6,94004E-001	0,00000E+000	8	...........	-32768,00
	597	29,9	6,96928E-001	4,62942E-005	0,00000E+000	6,97004E-001	0,00000E+000	8	...........	-32768,00
	600	30,05	6,99937E-001	4,61547E-005	0,00000E+000	7,00004E-001	0,00000E+000	8	...........	-32768,00
	603	30,2	7,02925E-001	4,60553E-005	0,00000E+000	7,03005E-001	0,00000E+000	8	...........	-32768,00
	606	30,35	7,05936E-001	4,59299E-005	0,00000E+000	7,06005E-001	0,00000E+000	8	...........	-32768,00
	609	30,5	7,08942E-001	4,58305E-005	0,00000E+000	7,09005E-001	0,00000E+000	8	...........	-32768,00
	612	30,65	7,11926E-001	4,57710E-005	0,00000E+000	7,12005E-001	0,00000E+000	8	...........	-32768,00
	615	30,8	7,14922E-001	4,57059E-005	0,00000E+000	7,15006E-001	0,00000E+000	8	...........	-32768,00
	618	30,95	7,17933E-001	4,56581E-005	0,00000E+000	7,18006E-001	0,00000E+000	8	...........	-32768,00
	621	31,1	7,20949E-001	4,56152E-005	0,00000E+000	7,21006E-001	0,00000E+000	8	...........	-32768,00
	624	31,25	7,23939E-001	4,55371E-005	0,00000E+000	7,24006E-001	0,00000E+000	8	...........	-32768,00
	627	31,4	7,26921E-001	4,54937E-005	0,00000E+000	7,26994E-001	0,00000E+000	8	...........	-32768,00
	630	31,55	7,29926E-001	4,54880E-005	0,00000E+000	7,29994E-001	0,00000E+000	8	...........	-32768,00
	633	31,7	7,32936E-001	4,54943E-005	0,00000E+000	7,32994E-001	0,00000E+000	8	...........	-32768,00
	636	31,85	7,35934E-001	4,54272E-005	0,00000E+000	7,35995E-001	0,00000E+000	8	...........	-32768,00
	639	32	7,38939E-001	4,54051E-005	0,00000E+000	7,38995E-001	0,00000E+000	8	...........	-32768,00
	642	32,15	7,41935E-001	4,53996E-005	0,00000E+000	7,41995E-001	0,00000E+000	8	...........	-32768,00
	645	32,3	7,44945E-001	4,53811E-005	0,00000E+000	7,44995E-001	0,00000E+000	8	...........	-32768,00
	648	32,45	7,47952E-001	4,54212E-005	0,00000E+000	7,47996E-001	0,00000E+000	8	...........	-32768,00
	651	32,6	7,50943E-001	4,54646E-005	0,00000E+000	7,50996E-001	0,00000E+000	8	...........	-32768,00
	654	32,75	7,53938E-001	4,54387E-005	0,00000E+000	7,53996E-001	0,00000E+000	8	...........	-32768,00
	657	32,9	7,56963E-001	4,54757E-005	0,00000E+000	7,56996E-001	0,00000E+000	8	...........	-32768,00
	660	33,05	7,59949E-001	4,55101E-005	0,00000E+000	7,59997E-001	0,00000E+000	8	...........	-32768,00
	663	33,2	7,62949E-001	4,55311E-005	0,00000E+000	7,62997E-001	0,00000E+000	8	...........	-32768,00
	666	33,35	7,65945E-001	4,55621E-005	0,00000E+000	7,65997E-001	0,00000E+000	8	...........	-32768,00
	669	33,5	7,68924E-001	4,56101E-005	0,00000E+000	7,68997E-001	0,00000E+000	8	...........	-32768,00
	672	33,65	7,71945E-001	4,56693E-005	0,00000E+000	7,71998E-001	0,00000E+000	8	...........	-32768,00
	675	33,8	7,74958E-001	4,57002E-005	0,00000E+000	7,74998E-001	0,00000E+000	8	...........	-32768,00
	678	33,95	7,77934E-001	4,57489E-005	0,00000E+000	7,77998E-001	0,00000E+000	8	...........	-32768,00
	681	34,1	7,80939E-001	4,58093E-005	0,00000E+000	7,80998E-001	0,00000E+000	8	...........	-32768,00
	684	34,25	7,83959E-001	4,58193E-005	0,00000E+000	7,83999E-001	0,00000E+000	8	...........	-32768,00
	687	34,4	7,86953E-001	4,58667E-005	0,00000E+000	7,86999E-001	0,00000E+000	8	...........	-32768,00
	690	34,55	7,89960E-001	4,58932E-005	0,00000E+000	7,89999E-001	0,00000E+000	8	...........	-32768,00
	693	34,7	7,92954E-001	4,59529E-005	0,00000E+000	7,92999E-001	0,00000E+000	8	...........	-32768,00
	696	34,85	7,95964E-001	4,60476E-005	0,00000E+000	7,96000E-001	0,00000E+000	8	...........	-32768,00
	699	35	7,98964E-001	4,61321E-005	0,00000E+000	7,99000E-001	0,00000E+000	8	...........	-32768,00
	702	35,15	7,97981E-001	4,53965E-005	0,00000E+000	7,98000E-001	0,00000E+000	8	...........	-32768,00
	705	35,3	7,94980E-001	4,44140E-005	0,00000E+000	7,94999E-001	0,00000E+000	8	...........	-32768,00
	708	35,45	7,91954E-001	4,34956E-005	0,00000E+000	7,91999E-001	0,00000E+000	8	...........	-32768,00
	711	35,6	7,88951E-001	4,25723E-005	0,00000E+000	7,88999E-001	0,00000E+000	8	...........	-32768,00
	714	35,75	7,85971E-001	4,17695E-005	0,00000E+000	7,85999E-001	0,00000E+000	8	...........	-32768,00
	717	35,9	7,82962E-001	4,09005E-005	0,00000E+000	7,82998E-001	0,00000E+000	8	...........	-32768,00
	720	36,05	7,79961E-001	4,01069E-005	0,00000E+000	7,79998E-001	0,00000E+000	8	...........	-32768,00
	723	36,2	7,76952E-001	3,93542E-005	0,00000E+000	7,76998E-001	0,00000E+000	8	...........	-32768,00
	726	36,35	7,73961E-001	3,86272E-005	0,00000E+000	7,73998E-001	0,00000E+000	8	...........	-32768,00
	729	36,5	7,70968E-001	3,79060E-005	0,00000E+000	7,70998E-001	0,00000E+000	8	...........	-32768,00
	732	36,65	7,67936E-001	3,72575E-005	0,00000E+000	7,67997E-001	0,00000E+000	8	...........	-32768,00
	735	36,8	7,64939E-001	3,65899E-005	0,00000E+000	7,64997E-001	0,00000E+000	8	...........	-32768,00
	738	36,95	7,61937E-001	3,59589E-005	0,00000E+000	7,61997E-001	0,00000E+000	8	...........	-32768,00
	741	37,1	7,58936E-001	3,53313E-005	0,00000E+000	7,58997E-001	0,00000E+000	8	...........	-32768,00
	744	37,25	7,55934E-001	3,47236E-005	0,00000E+000	7,55996E-001	0,00000E+000	8	...........	-32768,00
	747	37,4	7,52938E-001	3,41621E-005	0,00000E+000	7,52996E-001	0,00000E+000	8	...........	-32768,00
	750	37,55	7,49942E-001	3,36531E-005	0,00000E+000	7,49996E-001	0,00000E+000	8	...........	-32768,00
	753	37,7	7,46954E-001	3,30218E-005	0,00000E+000	7,46996E-001	0,00000E+000	8	...........	-32768,00
	756	37,85	7,43958E-001	3,24726E-005	0,00000E+000	7,43995E-001	0,00000E+000	8	...........	-32768,00
	759	38	7,40930E-001	3,19511E-005	0,00000E+000	7,40995E-001	0,00000E+000	8	...........	-32768,00
	762	38,15	7,37942E-001	3,14530E-005	0,00000E+000	7,37995E-001	0,00000E+000	8	...........	-32768,00
	765	38,3	7,34948E-001	3,09363E-005	0,00000E+000	7,34995E-001	0,00000E+000	8	...........	-32768,00
	768	38,45	7,31943E-001	3,04743E-005	0,00000E+000	7,31994E-001	0,00000E+000	8	...........	-32768,00
	771	38,6	7,28927E-001	2,99856E-005	0,00000E+000	7,28994E-001	0,00000E+000	8	...........	-32768,00
	774	38,75	7,25941E-001	2,95198E-005	0,00000E+000	7,25994E-001	0,00000E+000	8	...........	-32768,00
	777	38,9	7,22951E-001	2,90669E-005	0,00000E+000	7,23006E-001	0,00000E+000	8	...........	-32768,00
	780	39,05	7,19951E-001	2,86234E-005	0,00000E+000	7,20006E-001	0,00000E+000	8	...........	-32768,00
	783	39,2	7,16913E-001	2,81724E-005	0,00000E+000	7,17006E-001	0,00000E+000	8	...........	-32768,00
	786	39,35	7,13929E-001	2,77467E-005	0,00000E+000	7,14005E-001	0,00000E+000	8	...........	-32768,00
	789	39,5	7,10932E-001	2,73335E-005	0,00000E+000	7,11005E-001	0,00000E+000	8	...........	-32768,00
	792	39,65	7,07938E-001	2,69143E-005	0,00000E+000	7,08005E-001	0,00000E+000	8	...........	-32768,00
	795	39,8	7,04919E-001	2,65172E-005	0,00000E+000	7,05005E-001	0,00000E+000	8	...........	-32768,00
	798	39,95	7,01928E-001	2,61192E-005	0,00000E+000	7,02004E-001	0,00000E+000	8	...........	-32768,00
	801	40,1	6,98939E-001	2,57333E-005	0,00000E+000	6,99004E-001	0,00000E+000	8	...........	-32768,00
	804	40,25	6,95926E-001	2,53399E-005	0,00000E+000	6,96004E-001	0,00000E+000	8	...........	-32768,00
	807	40,4	6,92931E-001	2,49728E-005	0,00000E+000	6,93004E-001	0,00000E+000	8	...........	-32768,00
	810	40,55	6,89923E-001	2,45936E-005	0,00000E+000	6,90004E-001	0,00000E+000	8	...........	-32768,00
	813	40,7	6,86913E-001	2,42394E-005	0,00000E+000	6,87003E-001	0,00000E+000	8	...........	-32768,00
	816	40,85	6,83935E-001	2,38797E-005	0,00000E+000	6,84003E-001	0,00000E+000	8	...........	-32768,00
	819	41	6,80938E-001	2,35375E-005	0,00000E+000	6,81003E-001	0,00000E+000	8	...........	-32768,00
	822	41,15	6,77918E-001	2,31834E-005	0,00000E+000	6,78003E-001	0,00000E+000	8	...........	-32768,00
	825	41,3	6,74917E-001	2,28444E-005	0,00000E+000	6,75002E-001	0,00000E+000	8	...........	-32768,00
	828	41,45	6,71922E-001	2,25069E-005	0,00000E+000	6,72002E-001	0,00000E+000	8	...........	-32768,00
	831	41,6	6,68914E-001	2,21725E-005	0,00000E+000	6,69002E-001	0,00000E+000	8	...........	-32768,00
	834	41,75	6,65907E-001	2,18466E-005	0,00000E+000	6,66002E-001	0,00000E+000	8	...........	-32768,00
	837	41,9	6,62905E-001	2,15199E-005	0,00000E+000	6,63001E-001	0,00000E+000	8	...........	-32768,00
	840	42,05	6,59905E-001	2,12077E-005	0,00000E+000	6,60001E-001	0,00000E+000	8	...........	-32768,00
	843	42,2	6,56913E-001	2,08989E-005	0,00000E+000	6,57001E-001	0,00000E+000	8	...........	-32768,00
	846	42,35	6,53918E-001	2,05854E-005	0,00000E+000	6,54001E-001	0,00000E+000	8	...........	-32768,00
	849	42,5	6,50893E-001	2,02716E-005	0,00000E+000	6,51000E-001	0,00000E+000	8	...........	-32768,00
	852	42,65	6,47907E-001	1,99786E-005	0,00000E+000	6,48000E-001	0,00000E+000	8	...........	-32768,00
	855	42,8	6,44912E-001	1,96764E-005	0,00000E+000	6,45000E-001	0,00000E+000	8	...........	-32768,00
	858	42,95	6,41916E-001	1,93926E-005	0,00000E+000	6,42000E-001	0,00000E+000	8	...........	-32768,00
	861	43,1	6,38900E-001	1,90976E-005	0,00000E+000	6,38999E-001	0,00000E+000	8	...........	-32768,00
	864	43,25	6,35910E-001	1,88117E-005	0,00000E+000	6,35999E-001	0,00000E+000	8	...........	-32768,00
	867	43,4	6,32909E-001	1,85195E-005	0,00000E+000	6,32999E-001	0,00000E+000	8	...........	-32768,00
	870	43,55	6,29912E-001	1,82438E-005	0,00000E+000	6,29999E-001	0,00000E+000	8	...........	-32768,00
	873	43,7	6,26892E-001	1,79636E-005	0,00000E+000	6,26998E-001	0,00000E+000	8	...........	-32768,00
	876	43,85	6,23892E-001	1,76912E-005	0,00000E+000	6,23998E-001	0,00000E+000	8	...........	-32768,00
	879	44	6,20893E-001	1,74154E-005	0,00000E+000	6,20998E-001	0,00000E+000	8	...........	-32768,00
	882	44,15	6,17899E-001	1,71478E-005	0,00000E+000	6,17998E-001	0,00000E+000	8	...........	-32768,00
	885	44,3	6,14881E-001	1,68742E-005	0,00000E+000	6,14998E-001	0,00000E+000	8	...........	-32768,00
	888	44,45	6,11891E-001	1,66112E-005	0,00000E+000	6,11997E-001	0,00000E+000	8	...........	-32768,00
	891	44,6	6,08891E-001	1,63448E-005	0,00000E+000	6,08997E-001	0,00000E+000	8	...........	-32768,00
	894	44,75	6,05898E-001	1,60852E-005	0,00000E+000	6,05997E-001	0,00000E+000	8	...........	-32768,00
	897	44,9	6,02909E-001	1,58247E-005	0,00000E+000	6,02997E-001	0,00000E+000	8	...........	-32768,00
	900	45,05	5,99887E-001	1,55635E-005	0,00000E+000	5,99996E-001	0,00000E+000	8	...........	-32768,00
	903	45,2	5,96891E-001	1,53081E-005	0,00000E+000	5,96996E-001	0,00000E+000	8	...........	-32768,00
	906	45,35	5,93894E-001	1,50574E-005	0,00000E+000	5,93996E-001	0,00000E+000	8	...........	-32768,00
	909	45,5	5,90896E-001	1,48065E-005	0,00000E+000	5,90996E-001	0,00000E+000	8	...........	-32768,00
	912	45,65	5,87885E-001	1,45538E-005	0,00000E+000	5,87995E-001	0,00000E+000	8	...........	-32768,00
	915	45,8	5,84886E-001	1,43027E-005	0,00000E+000	5,84995E-001	0,00000E+000	8	...........	-32768,00
	918	45,95	5,81877E-001	1,40515E-005	0,00000E+000	5,81995E-001	0,00000E+000	8	...........	-32768,00
	921	46,1	5,78892E-001	1,37980E-005	0,00000E+000	5,78995E-001	0,00000E+000	8	...........	-32768,00
	924	46,25	5,75862E-001	1,35532E-005	0,00000E+000	5,75994E-001	0,00000E+000	8	...........	-32768,00
	927	46,4	5,72869E-001	1,33069E-005	0,00000E+000	5,72994E-001	0,00000E+000	8	...........	-32768,00
	930	46,55	5,69864E-001	1,30578E-005	0,00000E+000	5,69994E-001	0,00000E+000	8	...........	-32768,00
	933	46,7	5,66898E-001	1,28135E-005	0,00000E+000	5,67006E-001	0,00000E+000	8	...........	-32768,00
	936	46,85	5,63883E-001	1,25708E-005	0,00000E+000	5,64006E-001	0,00000E+000	8	...........	-32768,00
	939	47	5,60876E-001	1,23272E-005	0,00000E+000	5,61006E-001	0,00000E+000	8	...........	-32768,00
	942	47,15	5,57879E-001	1,20834E-005	0,00000E+000	5,58005E-001	0,00000E+000	8	...........	-32768,00
	945	47,3	5,54895E-001	1,18389E-005	0,00000E+000	5,55005E-001	0,00000E+000	8	...........	-32768,00
	948	47,45	5,51908E-001	1,15973E-005	0,00000E+000	5,52005E-001	0,00000E+000	8	...........	-32768,00
	951	47,6	5,48877E-001	1,13552E-005	0,00000E+000	5,49005E-001	0,00000E+000	8	...........	-32768,00
	954	47,75	5,45886E-001	1,11147E-005	0,00000E+000	5,46004E-001	0,00000E+000	8	...........	-32768,00
	957	47,9	5,42887E-001	1,08750E-005	0,00000E+000	5,43004E-001	0,00000E+000	8	...........	-32768,00
	960	48,05	5,39895E-001	1,06389E-005	0,00000E+000	5,40004E-001	0,00000E+000	8	...........	-32768,00
	963	48,2	5,36882E-001	1,04063E-005	0,00000E+000	5,37004E-001	0,00000E+000	8	...........	-32768,00
	966	48,35	5,33887E-001	1,01805E-005	0,00000E+000	5,34003E-001	0,00000E+000	8	...........	-32768,00
	969	48,5	5,30877E-001	9,95560E-006	0,00000E+000	5,31003E-001	0,00000E+000	8	...........	-32768,00
	972	48,65	5,27891E-001	9,73237E-006	0,00000E+000	5,28003E-001	0,00000E+000	8	...........	-32768,00
	975	48,8	5,24865E-001	9,51724E-006	0,00000E+000	5,25003E-001	0,00000E+000	8	...........	-32768,00
	978	48,95	5,21870E-001	9,30860E-006	0,00000E+000	5,22003E-001	0,00000E+000	8	...........	-32768,00
	981	49,1	5,18867E-001	9,10135E-006	0,00000E+000	5,19002E-001	0,00000E+000	8	...........	-32768,00
	984	49,25	5,15879E-001	8,90022E-006	0,00000E+000	5,16002E-001	0,00000E+000	8	...........	-32768,00
	987	49,4	5,12881E-001	8,70149E-006	0,00000E+000	5,13002E-001	0,00000E+000	8	...........	-32768,00
	990	49,55	5,09857E-001	8,50821E-006	0,00000E+000	5,10002E-001	0,00000E+000	8	...........	-32768,00
	993	49,7	5,06864E-001	8,31639E-006	0,00000E+000	5,07001E-001	0,00000E+000	8	...........	-32768,00
	996	49,85	5,03866E-001	8,12468E-006	0,00000E+000	5,04001E-001	0,00000E+000	8	...........	-32768,00
	999	50	5,00868E-001	7,92379E-006	0,00000E+000	5,01001E-001	0,00000E+000	7	...........	-32768,00
	1002	50,15	4,97844E-001	7,73965E-006	0,00000E+000	4,98001E-001	0,00000E+000	7	...........	-32768,00
	1005	50,3	4,94844E-001	7,54533E-006	0,00000E+000	4,95000E-001	0,00000E+000	7	...........	-32768,00
	1008	50,45	4,91863E-001	7,35559E-006	0,00000E+000	4,92000E-001	0,00000E+000	7	...........	-32768,00
	1011	50,6	4,88873E-001	7,16095E-006	0,00000E+000	4,89000E-001	0,00000E+000	7	...........	-32768,00
	1014	50,75	4,85843E-001	6,96280E-006	0,00000E+000	4,86000E-001	0,00000E+000	7	...........	-32768,00
	1017	50,9	4,82841E-001	6,76368E-006	0,00000E+000	4,82999E-001	0,00000E+000	7	...........	-32768,00
	1020	51,05	4,79861E-001	6,55940E-006	0,00000E+000	4,79999E-001	0,00000E+000	7	...........	-32768,00
	1023	51,2	4,76860E-001	6,35170E-006	0,00000E+000	4,76999E-001	0,00000E+000	7	...........	-32768,00
	1026	51,35	4,73841E-001	6,14254E-006	0,00000E+000	4,73999E-001	0,00000E+000	7	...........	-32768,00
	1029	51,5	4,70835E-001	5,92527E-006	0,00000E+000	4,70998E-001	0,00000E+000	7	...........	-32768,00
	1032	51,65	4,67839E-001	5,70367E-006	0,00000E+000	4,67998E-001	0,00000E+000	7	...........	-32768,00
	1035	51,8	4,64853E-001	5,47388E-006	0,00000E+000	4,64998E-001	0,00000E+000	7	...........	-32768,00
	1038	51,95	4,61848E-001	5,22258E-006	0,00000E+000	4,61998E-001	0,00000E+000	7	...........	-32768,00
	1041	52,1	4,58837E-001	4,92624E-006	0,00000E+000	4,58997E-001	0,00000E+000	7	...........	-32768,00
	1044	52,25	4,55842E-001	4,54705E-006	0,00000E+000	4,55997E-001	0,00000E+000	7	...........	-32768,00
	1047	52,4	4,52850E-001	4,01843E-006	0,00000E+000	4,52997E-001	0,00000E+000	7	...........	-32768,00
	1050	52,55	4,49845E-001	3,24950E-006	0,00000E+000	4,49997E-001	0,00000E+000	7	...........	-32768,00
	1053	52,7	4,46839E-001	2,09683E-006	0,00000E+000	4,46997E-001	0,00000E+000	7	...........	-32768,00
	1056	52,85	4,43833E-001	4,00077E-007	0,00000E+000	4,43996E-001	0,00000E+000	7	...........	-32768,00
	1059	53	4,40856E-001	-2,03631E-006	0,00000E+000	4,40996E-001	0,00000E+000	7	...........	-32768,00
	1062	53,15	4,37861E-001	-5,35032E-006	0,00000E+000	4,37996E-001	0,00000E+000	7	...........	-32768,00
	1065	53,3	4,34847E-001	-9,63718E-006	0,00000E+000	4,34996E-001	0,00000E+000	7	...........	-32768,00
	1068	53,45	4,31842E-001	-1,49715E-005	0,00000E+000	4,31995E-001	0,00000E+000	8	...........	-32768,00
	1071	53,6	4,28843E-001	-2,13483E-005	0,00000E+000	4,28995E-001	0,00000E+000	8	...........	-32768,00
	1074	53,75	4,25847E-001	-2,85771E-005	0,00000E+000	4,25995E-001	0,00000E+000	8	...........	-32768,00
	1077	53,9	4,22835E-001	-3,64590E-005	0,00000E+000	4,22995E-001	0,00000E+000	8	...........	-32768,00
	1080	54,05	4,19839E-001	-4,47998E-005	0,00000E+000	4,19994E-001	0,00000E+000	8	...........	-32768,00
	1083	54,2	4,16842E-001	-5,33084E-005	0,00000E+000	4,16994E-001	0,00000E+000	8	...........	-32768,00
	1086	54,35	4,13845E-001	-6,17886E-005	0,00000E+000	4,13994E-001	0,00000E+000	8	...........	-32768,00
	1089	54,5	4,10859E-001	-7,00285E-005	0,00000E+000	4,11006E-001	0,00000E+000	8	...........	-32768,00
	1092	54,65	4,07859E-001	-7,79222E-005	0,00000E+000	4,08006E-001	0,00000E+000	8	...........	-32768,00
	1095	54,8	4,04856E-001	-8,51289E-005	0,00000E+000	4,05006E-001	0,00000E+000	8	...........	-32768,00
	1098	54,95	4,01854E-001	-9,16611E-005	0,00000E+000	4,02005E-001	0,00000E+000	9	...........	-32768,00
	1101	55,1	3,98854E-001	-9,74444E-005	0,00000E+000	3,99005E-001	0,00000E+000	9	...........	-32768,00
	1104	55,25	3,95848E-001	-1,02359E-004	0,00000E+000	3,96005E-001	0,00000E+000	9	...........	-32768,00
	1107	55,4	3,92862E-001	-1,06510E-004	0,00000E+000	3,93005E-001	0,00000E+000	9	...........	-32768,00
	1110	55,55	3,89852E-001	-1,09756E-004	0,00000E+000	3,90004E-001	0,00000E+000	9	...........	-32768,00
	1113	55,7	3,86859E-001	-1,12261E-004	0,00000E+000	3,87004E-001	0,00000E+000	9	...........	-32768,00
	1116	55,85	3,83844E-001	-1,14072E-004	0,00000E+000	3,84004E-001	0,00000E+000	9	...........	-32768,00
	1119	56	3,80845E-001	-1,15228E-004	0,00000E+000	3,81004E-001	0,00000E+000	9	...........	-32768,00
	1122	56,15	3,77851E-001	-1,15806E-004	0,00000E+000	3,78003E-001	0,00000E+000	9	...........	-32768,00
	1125	56,3	3,74854E-001	-1,15829E-004	0,00000E+000	3,75003E-001	0,00000E+000	9	...........	-32768,00
	1128	56,45	3,71826E-001	-1,15393E-004	0,00000E+000	3,72003E-001	0,00000E+000	9	...........	-32768,00
	1131	56,6	3,68841E-001	-1,14568E-004	0,00000E+000	3,69003E-001	0,00000E+000	9	...........	-32768,00
	1134	56,75	3,65845E-001	-1,13410E-004	0,00000E+000	3,66003E-001	0,00000E+000	9	...........	-32768,00
	1137	56,9	3,62846E-001	-1,12027E-004	0,00000E+000	3,63002E-001	0,00000E+000	9	...........	-32768,00
	1140	57,05	3,59851E-001	-1,10376E-004	0,00000E+000	3,60002E-001	0,00000E+000	9	...........	-32768,00
	1143	57,2	3,56834E-001	-1,08605E-004	0,00000E+000	3,57002E-001	0,00000E+000	9	...........	-32768,00
	1146	57,35	3,53834E-001	-1,06688E-004	0,00000E+000	3,54002E-001	0,00000E+000	9	...........	-32768,00
	1149	57,5	3,50835E-001	-1,04652E-004	0,00000E+000	3,51001E-001	0,00000E+000	9	...........	-32768,00
	1152	57,65	3,47837E-001	-1,02613E-004	0,00000E+000	3,48001E-001	0,00000E+000	9	...........	-32768,00
	1155	57,8	3,44828E-001	-1,00460E-004	0,00000E+000	3,45001E-001	0,00000E+000	9	...........	-32768,00
	1158	57,95	3,41836E-001	-9,83415E-005	0,00000E+000	3,42001E-001	0,00000E+000	9	...........	-32768,00
	1161	58,1	3,38838E-001	-9,62783E-005	0,00000E+000	3,39000E-001	0,00000E+000	9	...........	-32768,00
	1164	58,25	3,35846E-001	-9,41875E-005	0,00000E+000	3,36000E-001	0,00000E+000	9	...........	-32768,00
	1167	58,4	3,32829E-001	-9,21207E-005	0,00000E+000	3,33000E-001	0,00000E+000	9	...........	-32768,00
	1170	58,55	3,29831E-001	-9,01309E-005	0,00000E+000	3,30000E-001	0,00000E+000	9	...........	-32768,00
	1173	58,7	3,26841E-001	-8,82090E-005	0,00000E+000	3,26999E-001	0,00000E+000	9	...........	-32768,00
	1176	58,85	3,23850E-001	-8,63548E-005	0,00000E+000	3,23999E-001	0,00000E+000	9	...........	-32768,00
	1179	59	3,20845E-001	-8,45474E-005	0,00000E+000	3,20999E-001	0,00000E+000	9	...........	-32768,00
	1182	59,15	3,17836E-001	-8,27977E-005	0,00000E+000	3,17999E-001	0,00000E+000	9	...........	-32768,00
	1185	59,3	3,14823E-001	-8,11339E-005	0,00000E+000	3,14998E-001	0,00000E+000	9	...........	-32768,00
	1188	59,45	3,11849E-001	-7,95224E-005	0,00000E+000	3,11998E-001	0,00000E+000	8	...........	-32768,00
	1191	59,6	3,08831E-001	-7,79960E-005	0,00000E+000	3,08998E-001	0,00000E+000	8	...........	-32768,00
	1194	59,75	3,05822E-001	-7,65333E-005	0,00000E+000	3,05998E-001	0,00000E+000	8	...........	-32768,00
	1197	59,9	3,02826E-001	-7,51279E-005	0,00000E+000	3,02997E-001	0,00000E+000	8	...........	-32768,00
	1200	60,05	2,99824E-001	-7,37645E-005	0,00000E+000	2,99997E-001	0,00000E+000	8	...........	-32768,00
	1203	60,2	2,96840E-001	-7,24484E-005	0,00000E+000	2,96997E-001	0,00000E+000	8	...........	-32768,00
	1206	60,35	2,93809E-001	-7,12120E-005	0,00000E+000	2,93997E-001	0,00000E+000	8	...........	-32768,00
	1209	60,5	2,90817E-001	-7,00001E-005	0,00000E+000	2,90996E-001	0,00000E+000	8	...........	-32768,00
	1212	60,65	2,87830E-001	-6,88321E-005	0,00000E+000	2,87996E-001	0,00000E+000	8	...........	-32768,00
	1215	60,8	2,84830E-001	-6,77673E-005	0,00000E+000	2,84996E-001	0,00000E+000	8	...........	-32768,00
	1218	60,95	2,81822E-001	-6,66835E-005	0,00000E+000	2,81996E-001	0,00000E+000	8	...........	-32768,00
	1221	61,1	2,78832E-001	-6,56958E-005	0,00000E+000	2,78996E-001	0,00000E+000	8	...........	-32768,00
	1224	61,25	2,75825E-001	-6,47027E-005	0,00000E+000	2,75995E-001	0,00000E+000	8	...........	-32768,00
	1227	61,4	2,72830E-001	-6,37716E-005	0,00000E+000	2,72995E-001	0,00000E+000	8	...........	-32768,00
	1230	61,55	2,69834E-001	-6,28813E-005	0,00000E+000	2,69995E-001	0,00000E+000	8	...........	-32768,00
	1233	61,7	2,66822E-001	-6,20403E-005	0,00000E+000	2,66995E-001	0,00000E+000	8	...........	-32768,00
	1236	61,85	2,63829E-001	-6,12603E-005	0,00000E+000	2,63994E-001	0,00000E+000	8	...........	-32768,00
	1239	62	2,60823E-001	-6,04835E-005	0,00000E+000	2,60994E-001	0,00000E+000	8	...........	-32768,00
	1242	62,15	2,57829E-001	-5,97477E-005	0,00000E+000	2,57994E-001	0,00000E+000	8	...........	-32768,00
	1245	62,3	2,54817E-001	-5,90360E-005	0,00000E+000	2,55006E-001	0,00000E+000	8	...........	-32768,00
	1248	62,45	2,51816E-001	-5,83740E-005	0,00000E+000	2,52006E-001	0,00000E+000	8	...........	-32768,00
	1251	62,6	2,48820E-001	-5,77517E-005	0,00000E+000	2,49006E-001	0,00000E+000	8	...........	-32768,00
	1254	62,75	2,45829E-001	-5,71553E-005	0,00000E+000	2,46005E-001	0,00000E+000	8	...........	-32768,00
	1257	62,9	2,42807E-001	-5,65737E-005	0,00000E+000	2,43005E-001	0,00000E+000	8	...........	-32768,00
	1260	63,05	2,39823E-001	-5,60325E-005	0,00000E+000	2,40005E-001	0,00000E+000	8	...........	-32768,00
	1263	63,2	2,36817E-001	-5,55367E-005	0,00000E+000	2,37005E-001	0,00000E+000	8	...........	-32768,00
	1266	63,35	2,33811E-001	-5,50340E-005	0,00000E+000	2,34004E-001	0,00000E+000	8	...........	-32768,00
	1269	63,5	2,30823E-001	-5,45457E-005	0,00000E+000	2,31004E-001	0,00000E+000	8	...........	-32768,00
	1272	63,65	2,27817E-001	-5,41056E-005	0,00000E+000	2,28004E-001	0,00000E+000	8	...........	-32768,00
	1275	63,8	2,24814E-001	-5,36768E-005	0,00000E+000	2,25004E-001	0,00000E+000	8	...........	-32768,00
	1278	63,95	2,21827E-001	-5,32439E-005	0,00000E+000	2,22003E-001	0,00000E+000	8	...........	-32768,00
	1281	64,1	2,18819E-001	-5,28250E-005	0,00000E+000	2,19003E-001	0,00000E+000	8	...........	-32768,00
	1284	64,25	2,15811E-001	-5,23947E-005	0,00000E+000	2,16003E-001	0,00000E+000	8	...........	-32768,00
	1287	64,4	2,12812E-001	-5,20003E-005	0,00000E+000	2,13003E-001	0,00000E+000	8	...........	-32768,00
	1290	64,55	2,09814E-001	-5,15776E-005	0,00000E+000	2,10003E-001	0,00000E+000	8	...........	-32768,00
	1293	64,7	2,06814E-001	-5,11701E-005	0,00000E+000	2,07002E-001	0,00000E+000	8	...........	-32768,00
	1296	64,85	2,03807E-001	-5,07628E-005	0,00000E+000	2,04002E-001	0,00000E+000	8	...........	-32768,00
	1299	65	2,00814E-001	-5,03621E-005	0,00000E+000	2,01002E-001	0,00000E+000	8	...........	-32768,00
	1302	65,15	1,97817E-001	-4,99566E-005	0,00000E+000	1,98002E-001	0,00000E+000	8	...........	-32768,00
	1305	65,3	1,94813E-001	-4,95597E-005	0,00000E+000	1,95001E-001	0,00000E+000	8	...........	-32768,00
	1308	65,45	1,91794E-001	-4,91666E-005	0,00000E+000	1,92001E-001	0,00000E+000	8	...........	-32768,00
	1311	65,6	1,88799E-001	-4,88009E-005	0,00000E+000	1,89001E-001	0,00000E+000	8	...........	-32768,00
	1314	65,75	1,85813E-001	-4,84135E-005	0,00000E+000	1,86001E-001	0,00000E+000	8	...........	-32768,00
	1317	65,9	1,82811E-001	-4,80767E-005	0,00000E+000	1,83000E-001	0,00000E+000	8	...........	-32768,00
	1320	66,05	1,79828E-001	-4,77241E-005	0,00000E+000	1,80000E-001	0,00000E+000	8	...........	-32768,00
	1323	66,2	1,76810E-001	-4,73722E-005	0,00000E+000	1,77000E-001	0,00000E+000	8	...........	-32768,00
	1326	66,35	1,73820E-001	-4,70410E-005	0,00000E+000	1,74000E-001	0,00000E+000	8	...........	-32768,00
	1329	66,5	1,70823E-001	-4,66804E-005	0,00000E+000	1,70999E-001	0,00000E+000	8	...........	-32768,00
	1332	66,65	1,67829E-001	-4,63825E-005	0,00000E+000	1,67999E-001	0,00000E+000	8	...........	-32768,00
	1335	66,8	1,64805E-001	-4,60893E-005	0,00000E+000	1,64999E-001	0,00000E+000	8	...........	-32768,00
	1338	66,95	1,61804E-001	-4,57923E-005	0,00000E+000	1,61999E-001	0,00000E+000	8	...........	-32768,00
	1341	67,1	1,58811E-001	-4,55795E-005	0,00000E+000	1,58998E-001	0,00000E+000	8	...........	-32768,00
	1344	67,25	1,55800E-001	-4,53027E-005	0,00000E+000	1,55998E-001	0,00000E+000	8	...........	-32768,00
	1347	67,4	1,52791E-001	-4,50086E-005	0,00000E+000	1,52998E-001	0,00000E+000	8	...........	-32768,00
	1350	67,55	1,49788E-001	-4,47842E-005	0,00000E+000	1,49998E-001	0,00000E+000	8	...........	-32768,00
	1353	67,7	1,46808E-001	-4,45948E-005	0,00000E+000	1,46997E-001	0,00000E+000	8	...........	-32768,00
	1356	67,85	1,43799E-001	-4,43659E-005	0,00000E+000	1,43997E-001	0,00000E+000	8	...........	-32768,00
	1359	68	1,40784E-001	-4,41706E-005	0,00000E+000	1,40997E-001	0,00000E+000	8	...........	-32768,00
	1362	68,15	1,37789E-001	-4,39608E-005	0,00000E+000	1,37997E-001	0,00000E+000	8	...........	-32768,00
	1365	68,3	1,34800E-001	-4,38035E-005	0,00000E+000	1,34997E-001	0,00000E+000	8	...........	-32768,00
	1368	68,45	1,31806E-001	-4,36413E-005	0,00000E+000	1,31996E-001	0,00000E+000	8	...........	-32768,00
	1371	68,6	1,28802E-001	-4,34686E-005	0,00000E+000	1,28996E-001	0,00000E+000	8	...........	-32768,00
	1374	68,75	1,25782E-001	-4,32951E-005	0,00000E+000	1,25996E-001	0,00000E+000	8	...........	-32768,00
	1377	68,9	1,22800E-001	-4,32026E-005	0,00000E+000	1,22996E-001	0,00000E+000	8	...........	-32768,00
	1380	69,05	1,19799E-001	-4,30688E-005	0,00000E+000	1,19995E-001	0,00000E+000	8	...........	-32768,00
	1383	69,2	1,16798E-001	-4,29615E-005	0,00000E+000	1,16995E-001	0,00000E+000	8	...........	-32768,00
	1386	69,35	1,13774E-001	-4,28700E-005	0,00000E+000	1,13995E-001	0,00000E+000	8	...........	-32768,00
	1389	69,5	1,10787E-001	-4,27239E-005	0,00000E+000	1,10995E-001	0,00000E+000	8	...........	-32768,00
	1392	69,65	1,07788E-001	-4,26535E-005	0,00000E+000	1,07994E-001	0,00000E+000	8	...........	-32768,00
	1395	69,8	1,04784E-001	-4,26207E-005	0,00000E+000	1,04994E-001	0,00000E+000	8	...........	-32768,00
	1398	69,95	1,01792E-001	-4,25647E-005	0,00000E+000	1,01994E-001	0,00000E+000	8	...........	-32768,00
	1400	70,05	9,97877E-002	-4,25303E-005	0,00000E+000	1,00006E-001	0,00000E+000	8	...........	-32768,00