File: HOPG_cv/3mM/AgNO3_HOPG_3mM_90mv_1_cv.DTA
EXPLAIN
TAG	CV
TITLE	LABEL	Cyclic Voltammetry	Test &Identifier
DATE	LABEL	30/4/2022	Date
TIME	LABEL	16:00:45	Time
NOTES	NOTES	2	&Notes...
	30/04/22 , 5mM  AgNO3

PSTAT	PSTAT	IFC1000-09004	Potentiostat
VINIT	POTEN	1,00000E-001	F	Initial &E (V)
VLIMIT1	POTEN	1,00000E-001	F	Scan Limit &1 (V)
VLIMIT2	POTEN	8,00000E-001	F	Scan Limit &2 (V)
VFINAL	POTEN	1,00000E-001	F	Final &E (V)
SCANRATE	QUANT	8,99548E+001	&Scan Rate (mV/s)
STEPSIZE	QUANT	1,00000E+000	St&ep Size (mV)
CYCLES	IQUANT	1	C&ycles (#)
IMODE	SELECTOR	0	I/E Range &Mode
IRANGE	QUANT	1,00000E-005	&Max Current (mA)
AREA	QUANT	1,00000E+000	Electrode &Area (cm^2)
ELECTRODETYPE	SELECTOR	0	Electrode Type
STRIPPING	TOGGLE	F	Used for Stripping
POLARITY	TOGGLE	F	Signal Polarity
CONDIT	TWOPARAM	F	1,50000E+001	0,00000E+000	Conditionin&g	Time(s)	E(V)
DELAY	TWOPARAM	F	3,00000E+001	0,00000E+000	Init. De&lay	Time(s)	Stab.(mV/s)
EQDELAY	QUANT	1,00000E+001	Equil. &Time (s)
IRCOMP	SELECTOR	0	IRCom&p
PFCOR	QUANT	5,00000E+001	PF Corr. (ohm)
SAMPLINGMODE	SELECTOR	1	Sampling &Mode
EOC	QUANT	0	Open Circuit (V)
PSTATMODEL	IQUANT	48	Pstat Model
PSTATSECTION	LABEL	IFC1000-09004	Pstat Section
PSTATSERIALNO	LABEL	09004	Pstat Serial Number
CTRLMODE	IQUANT	1	Control Mode
ELECTROMETER	IQUANT	0	RE=0 or CS=1
IESTAB	IQUANT	2	I/E Stability
CASPEED	IQUANT	4	Control Amp Speed
CONVENTION	IQUANT	1	Current Convention
ICHRANGE	IQUANT	2	Ich Range
ICHRANGEMODE	TOGGLE	F	Ich Auto Range
ICHOFFSETENABLE	TOGGLE	F	Ich Offset Enable
ICHOFFSET	QUANT	0	Ich Offset (V)
ICHFILTER	IQUANT	3	Ich Filter
VCHRANGE	IQUANT	2	Vch Range
VCHRANGEMODE	TOGGLE	F	Vch Auto Range
VCHOFFSETENABLE	TOGGLE	F	Vch Offset Enable
VCHOFFSET	QUANT	0	Vch Offset (V)
VCHFILTER	IQUANT	3	Vch Filter
IERANGELOWERLIMIT	IQUANT	4	I/E Range Lower Limit
IERANGEMODE	TOGGLE	T	I/E AutoRange
IERANGE	IQUANT	5	I/E Range
ACHSELECT	IQUANT	0	Ach Select
ACHRANGE	IQUANT	2	Ach Range
ACHOFFSETENABLE	TOGGLE	F	Ach Offset Enable
ACHOFFSET	QUANT	0	Ach Offset (V)
ACHFILTER	IQUANT	1	Ach Filter
CABLEID	IQUANT	14	Cable ID
DCCALDATE	LABEL	3/18/2022	DC Calibration Date
ACCALDATE	LABEL	3/10/2016	AC Calibration Date
FRAMEWORKVERSION	QUANT	7,05	Framework Version
INSTRUMENTVERSION	LABEL	4.21	Instrument Version
CURVE1	TABLE
	Pt	T	Vf	Im	Vu	Sig	Ach	IERange	Over	Temp
	#	s	V vs. Ref.	A	V	V	V	#	bits	deg C
	0	0,011117	9,97923E-002	-3,90348E-005	0,00000E+000	1,00006E-001	0,00000E+000	8	...........	-32768,00
	3	0,044467	1,02795E-001	-3,79695E-005	0,00000E+000	1,03006E-001	0,00000E+000	8	...........	-32768,00
	6	0,077817	1,05792E-001	-3,73941E-005	0,00000E+000	1,06007E-001	0,00000E+000	8	...........	-32768,00
	9	0,111167	1,08809E-001	-3,69549E-005	0,00000E+000	1,09007E-001	0,00000E+000	8	...........	-32768,00
	12	0,144517	1,11799E-001	-3,65891E-005	0,00000E+000	1,12007E-001	0,00000E+000	8	...........	-32768,00
	15	0,177867	1,14800E-001	-3,62233E-005	0,00000E+000	1,15007E-001	0,00000E+000	8	...........	-32768,00
	18	0,211217	1,17817E-001	-3,57995E-005	0,00000E+000	1,18008E-001	0,00000E+000	8	...........	-32768,00
	21	0,244567	1,20807E-001	-3,55004E-005	0,00000E+000	1,21008E-001	0,00000E+000	8	...........	-32768,00
	24	0,277917	1,23806E-001	-3,51973E-005	0,00000E+000	1,24008E-001	0,00000E+000	8	...........	-32768,00
	27	0,311267	1,26812E-001	-3,48689E-005	0,00000E+000	1,27008E-001	0,00000E+000	8	...........	-32768,00
	30	0,344617	1,29832E-001	-3,46149E-005	0,00000E+000	1,30021E-001	0,00000E+000	8	...........	-32768,00
	33	0,377967	1,32835E-001	-3,43648E-005	0,00000E+000	1,33021E-001	0,00000E+000	8	...........	-32768,00
	36	0,411317	1,35828E-001	-3,41565E-005	0,00000E+000	1,36022E-001	0,00000E+000	8	...........	-32768,00
	39	0,444667	1,38825E-001	-3,38828E-005	0,00000E+000	1,39022E-001	0,00000E+000	8	...........	-32768,00
	42	0,478017	1,41828E-001	-3,36407E-005	0,00000E+000	1,42022E-001	0,00000E+000	8	...........	-32768,00
	45	0,511367	1,44824E-001	-3,34159E-005	0,00000E+000	1,45022E-001	0,00000E+000	8	...........	-32768,00
	48	0,544717	1,47833E-001	-3,32088E-005	0,00000E+000	1,48023E-001	0,00000E+000	8	...........	-32768,00
	51	0,578067	1,50811E-001	-3,30048E-005	0,00000E+000	1,51023E-001	0,00000E+000	8	...........	-32768,00
	54	0,611417	1,53819E-001	-3,28103E-005	0,00000E+000	1,54023E-001	0,00000E+000	8	...........	-32768,00
	57	0,644767	1,56830E-001	-3,26267E-005	0,00000E+000	1,57023E-001	0,00000E+000	8	...........	-32768,00
	60	0,678117	1,59844E-001	-3,24315E-005	0,00000E+000	1,60036E-001	0,00000E+000	8	...........	-32768,00
	63	0,711467	1,62840E-001	-3,22575E-005	0,00000E+000	1,63036E-001	0,00000E+000	8	...........	-32768,00
	66	0,744817	1,65839E-001	-3,21024E-005	0,00000E+000	1,66036E-001	0,00000E+000	8	...........	-32768,00
	69	0,778167	1,68862E-001	-3,19348E-005	0,00000E+000	1,69037E-001	0,00000E+000	8	...........	-32768,00
	72	0,811517	1,71855E-001	-3,17820E-005	0,00000E+000	1,72037E-001	0,00000E+000	8	...........	-32768,00
	75	0,844867	1,74841E-001	-3,16195E-005	0,00000E+000	1,75037E-001	0,00000E+000	8	...........	-32768,00
	78	0,878217	1,77829E-001	-3,14482E-005	0,00000E+000	1,78037E-001	0,00000E+000	8	...........	-32768,00
	81	0,911567	1,80867E-001	-3,12955E-005	0,00000E+000	1,81038E-001	0,00000E+000	8	...........	-32768,00
	84	0,944917	1,83859E-001	-3,11646E-005	0,00000E+000	1,84038E-001	0,00000E+000	8	...........	-32768,00
	87	0,97827	1,86871E-001	-3,10152E-005	0,00000E+000	1,87038E-001	0,00000E+000	8	...........	-32768,00
	90	1,01162	1,89853E-001	-3,08415E-005	0,00000E+000	1,90051E-001	0,00000E+000	8	...........	-32768,00
	93	1,04497	1,92871E-001	-3,07260E-005	0,00000E+000	1,93051E-001	0,00000E+000	8	...........	-32768,00
	96	1,07832	1,95878E-001	-3,05829E-005	0,00000E+000	1,96051E-001	0,00000E+000	8	...........	-32768,00
	99	1,11167	1,98854E-001	-3,04483E-005	0,00000E+000	1,99052E-001	0,00000E+000	8	...........	-32768,00
	102	1,14502	2,01860E-001	-3,03452E-005	0,00000E+000	2,02052E-001	0,00000E+000	8	...........	-32768,00
	105	1,17837	2,04864E-001	-3,01981E-005	0,00000E+000	2,05052E-001	0,00000E+000	8	...........	-32768,00
	108	1,21172	2,07874E-001	-3,00622E-005	0,00000E+000	2,08052E-001	0,00000E+000	8	...........	-32768,00
	111	1,24507	2,10870E-001	-2,99394E-005	0,00000E+000	2,11053E-001	0,00000E+000	8	...........	-32768,00
	114	1,27842	2,13866E-001	-2,98047E-005	0,00000E+000	2,14053E-001	0,00000E+000	8	...........	-32768,00
	117	1,31177	2,16855E-001	-2,97016E-005	0,00000E+000	2,17053E-001	0,00000E+000	8	...........	-32768,00
	120	1,34512	2,19892E-001	-2,95803E-005	0,00000E+000	2,20066E-001	0,00000E+000	8	...........	-32768,00
	123	1,37847	2,22891E-001	-2,94399E-005	0,00000E+000	2,23066E-001	0,00000E+000	8	...........	-32768,00
	126	1,41182	2,25886E-001	-2,93226E-005	0,00000E+000	2,26066E-001	0,00000E+000	8	...........	-32768,00
	129	1,44517	2,28882E-001	-2,91862E-005	0,00000E+000	2,29067E-001	0,00000E+000	8	...........	-32768,00
	132	1,47852	2,31904E-001	-2,90694E-005	0,00000E+000	2,32067E-001	0,00000E+000	8	...........	-32768,00
	135	1,51187	2,34901E-001	-2,89482E-005	0,00000E+000	2,35067E-001	0,00000E+000	8	...........	-32768,00
	138	1,54522	2,37891E-001	-2,88173E-005	0,00000E+000	2,38067E-001	0,00000E+000	8	...........	-32768,00
	141	1,57857	2,40895E-001	-2,87143E-005	0,00000E+000	2,41067E-001	0,00000E+000	8	...........	-32768,00
	144	1,61192	2,43899E-001	-2,85735E-005	0,00000E+000	2,44068E-001	0,00000E+000	8	...........	-32768,00
	147	1,64527	2,46878E-001	-2,84665E-005	0,00000E+000	2,47068E-001	0,00000E+000	8	...........	-32768,00
	150	1,67862	2,49906E-001	-2,83377E-005	0,00000E+000	2,50081E-001	0,00000E+000	8	...........	-32768,00
	153	1,71197	2,52894E-001	-2,82216E-005	0,00000E+000	2,53081E-001	0,00000E+000	8	...........	-32768,00
	156	1,74532	2,55902E-001	-2,80845E-005	0,00000E+000	2,56081E-001	0,00000E+000	8	...........	-32768,00
	159	1,77867	2,58911E-001	-2,79656E-005	0,00000E+000	2,59081E-001	0,00000E+000	8	...........	-32768,00
	162	1,81202	2,61916E-001	-2,78516E-005	0,00000E+000	2,62082E-001	0,00000E+000	8	...........	-32768,00
	165	1,84537	2,64913E-001	-2,77209E-005	0,00000E+000	2,65082E-001	0,00000E+000	8	...........	-32768,00
	168	1,87872	2,67907E-001	-2,76080E-005	0,00000E+000	2,68082E-001	0,00000E+000	8	...........	-32768,00
	171	1,91207	2,70915E-001	-2,74531E-005	0,00000E+000	2,71082E-001	0,00000E+000	8	...........	-32768,00
	174	1,94542	2,73902E-001	-2,73177E-005	0,00000E+000	2,74083E-001	0,00000E+000	8	...........	-32768,00
	177	1,97877	2,76913E-001	-2,71883E-005	0,00000E+000	2,77083E-001	0,00000E+000	8	...........	-32768,00
	180	2,01212	2,79903E-001	-2,70445E-005	0,00000E+000	2,80096E-001	0,00000E+000	8	...........	-32768,00
	183	2,04547	2,82934E-001	-2,69022E-005	0,00000E+000	2,83096E-001	0,00000E+000	8	...........	-32768,00
	186	2,07882	2,85938E-001	-2,67467E-005	0,00000E+000	2,86096E-001	0,00000E+000	8	...........	-32768,00
	189	2,11217	2,88928E-001	-2,66036E-005	0,00000E+000	2,89096E-001	0,00000E+000	8	...........	-32768,00
	192	2,14552	2,91930E-001	-2,64418E-005	0,00000E+000	2,92097E-001	0,00000E+000	8	...........	-32768,00
	195	2,17887	2,94911E-001	-2,62818E-005	0,00000E+000	2,95097E-001	0,00000E+000	8	...........	-32768,00
	198	2,21222	2,97926E-001	-2,61091E-005	0,00000E+000	2,98097E-001	0,00000E+000	8	...........	-32768,00
	201	2,24557	3,00926E-001	-2,59239E-005	0,00000E+000	3,01097E-001	0,00000E+000	8	...........	-32768,00
	204	2,27892	3,03921E-001	-2,57595E-005	0,00000E+000	3,04098E-001	0,00000E+000	8	...........	-32768,00
	207	2,31227	3,06921E-001	-2,55656E-005	0,00000E+000	3,07098E-001	0,00000E+000	8	...........	-32768,00
	210	2,34562	3,09946E-001	-2,53568E-005	0,00000E+000	3,10111E-001	0,00000E+000	8	...........	-32768,00
	213	2,37897	3,12952E-001	-2,51397E-005	0,00000E+000	3,13111E-001	0,00000E+000	8	...........	-32768,00
	216	2,41232	3,15944E-001	-2,49062E-005	0,00000E+000	3,16111E-001	0,00000E+000	8	...........	-32768,00
	219	2,44567	3,18940E-001	-2,46738E-005	0,00000E+000	3,19111E-001	0,00000E+000	8	...........	-32768,00
	222	2,47902	3,21958E-001	-2,44281E-005	0,00000E+000	3,22111E-001	0,00000E+000	8	...........	-32768,00
	225	2,51237	3,24961E-001	-2,41609E-005	0,00000E+000	3,25112E-001	0,00000E+000	8	...........	-32768,00
	228	2,54572	3,27942E-001	-2,38799E-005	0,00000E+000	3,28112E-001	0,00000E+000	8	...........	-32768,00
	231	2,57907	3,30957E-001	-2,35612E-005	0,00000E+000	3,31112E-001	0,00000E+000	8	...........	-32768,00
	234	2,61242	3,33970E-001	-2,32298E-005	0,00000E+000	3,34112E-001	0,00000E+000	8	...........	-32768,00
	237	2,64577	3,36962E-001	-2,28530E-005	0,00000E+000	3,37113E-001	0,00000E+000	8	...........	-32768,00
	240	2,67912	3,39972E-001	-2,24156E-005	0,00000E+000	3,40125E-001	0,00000E+000	8	...........	-32768,00
	243	2,71247	3,42973E-001	-2,19028E-005	0,00000E+000	3,43126E-001	0,00000E+000	8	...........	-32768,00
	246	2,74582	3,45960E-001	-2,12946E-005	0,00000E+000	3,46126E-001	0,00000E+000	8	...........	-32768,00
	249	2,77917	3,48971E-001	-2,05988E-005	0,00000E+000	3,49126E-001	0,00000E+000	8	...........	-32768,00
	252	2,81252	3,51968E-001	-1,98907E-005	0,00000E+000	3,52126E-001	0,00000E+000	8	...........	-32768,00
	255	2,84587	3,54956E-001	-1,91998E-005	0,00000E+000	3,55127E-001	0,00000E+000	8	...........	-32768,00
	258	2,87922	3,57956E-001	-1,85128E-005	0,00000E+000	3,58127E-001	0,00000E+000	8	...........	-32768,00
	261	2,91257	3,60970E-001	-1,78337E-005	0,00000E+000	3,61127E-001	0,00000E+000	8	...........	-32768,00
	264	2,94592	3,63965E-001	-1,71166E-005	0,00000E+000	3,64127E-001	0,00000E+000	8	...........	-32768,00
	267	2,97927	3,66970E-001	-1,63833E-005	0,00000E+000	3,67128E-001	0,00000E+000	8	...........	-32768,00
	270	3,01262	3,69976E-001	-1,56022E-005	0,00000E+000	3,70140E-001	0,00000E+000	8	...........	-32768,00
	273	3,04597	3,73004E-001	-1,47294E-005	0,00000E+000	3,73141E-001	0,00000E+000	8	...........	-32768,00
	276	3,07932	3,75991E-001	-1,38556E-005	0,00000E+000	3,76141E-001	0,00000E+000	8	...........	-32768,00
	279	3,11267	3,78986E-001	-1,28739E-005	0,00000E+000	3,79141E-001	0,00000E+000	8	...........	-32768,00
	282	3,14602	3,81989E-001	-1,18514E-005	0,00000E+000	3,82141E-001	0,00000E+000	8	...........	-32768,00
	285	3,17937	3,85018E-001	-1,07366E-005	0,00000E+000	3,85142E-001	0,00000E+000	8	...........	-32768,00
	288	3,21272	3,88004E-001	-9,55845E-006	0,00000E+000	3,88142E-001	0,00000E+000	8	...........	-32768,00
	291	3,24607	3,90995E-001	-8,29143E-006	0,00000E+000	3,91142E-001	0,00000E+000	8	...........	-32768,00
	294	3,27942	3,93989E-001	-6,94122E-006	0,00000E+000	3,94142E-001	0,00000E+000	8	...........	-32768,00
	297	3,31277	3,96988E-001	-5,49662E-006	0,00000E+000	3,97143E-001	0,00000E+000	8	...........	-32768,00
	300	3,34612	4,00002E-001	-3,98445E-006	0,00000E+000	4,00155E-001	0,00000E+000	8	...........	-32768,00
	303	3,37947	4,03022E-001	-2,36168E-006	0,00000E+000	4,03156E-001	0,00000E+000	8	...........	-32768,00
	306	3,41282	4,06011E-001	-6,79252E-007	0,00000E+000	4,06156E-001	0,00000E+000	8	...........	-32768,00
	309	3,44617	4,09000E-001	1,11520E-006	0,00000E+000	4,09156E-001	0,00000E+000	8	...........	-32768,00
	312	3,47952	4,12010E-001	2,99174E-006	0,00000E+000	4,12156E-001	0,00000E+000	8	...........	-32768,00
	315	3,51287	4,15000E-001	4,94132E-006	0,00000E+000	4,15156E-001	0,00000E+000	8	...........	-32768,00
	318	3,54622	4,18005E-001	6,98761E-006	0,00000E+000	4,18157E-001	0,00000E+000	8	...........	-32768,00
	321	3,57957	4,21016E-001	9,08785E-006	0,00000E+000	4,21157E-001	0,00000E+000	8	...........	-32768,00
	324	3,61292	4,24022E-001	1,12557E-005	0,00000E+000	4,24157E-001	0,00000E+000	8	...........	-32768,00
	327	3,64627	4,27019E-001	1,35034E-005	0,00000E+000	4,27157E-001	0,00000E+000	8	...........	-32768,00
	330	3,67962	4,30028E-001	1,58182E-005	0,00000E+000	4,30170E-001	0,00000E+000	8	...........	-32768,00
	333	3,71297	4,33024E-001	1,81737E-005	0,00000E+000	4,33170E-001	0,00000E+000	8	...........	-32768,00
	336	3,74632	4,36043E-001	2,06272E-005	0,00000E+000	4,36171E-001	0,00000E+000	8	...........	-32768,00
	339	3,77967	4,39029E-001	2,31336E-005	0,00000E+000	4,39171E-001	0,00000E+000	8	...........	-32768,00
	342	3,81302	4,42026E-001	2,57652E-005	0,00000E+000	4,42171E-001	0,00000E+000	8	...........	-32768,00
	345	3,84637	4,45020E-001	2,85248E-005	0,00000E+000	4,45171E-001	0,00000E+000	8	...........	-32768,00
	348	3,87972	4,48013E-001	3,14270E-005	0,00000E+000	4,48172E-001	0,00000E+000	8	...........	-32768,00
	351	3,91307	4,51014E-001	3,44594E-005	0,00000E+000	4,51172E-001	0,00000E+000	8	...........	-32768,00
	354	3,94642	4,54030E-001	3,77144E-005	0,00000E+000	4,54172E-001	0,00000E+000	8	...........	-32768,00
	357	3,97977	4,57029E-001	4,11708E-005	0,00000E+000	4,57172E-001	0,00000E+000	8	...........	-32768,00
	360	4,01312	4,60028E-001	4,48917E-005	0,00000E+000	4,60185E-001	0,00000E+000	8	...........	-32768,00
	363	4,04647	4,63036E-001	4,88134E-005	0,00000E+000	4,63185E-001	0,00000E+000	8	...........	-32768,00
	366	4,07982	4,66041E-001	5,30486E-005	0,00000E+000	4,66186E-001	0,00000E+000	8	...........	-32768,00
	369	4,11317	4,69043E-001	5,75431E-005	0,00000E+000	4,69186E-001	0,00000E+000	8	...........	-32768,00
	372	4,14652	4,72035E-001	6,23439E-005	0,00000E+000	4,72186E-001	0,00000E+000	8	...........	-32768,00
	375	4,17987	4,75060E-001	6,73907E-005	0,00000E+000	4,75186E-001	0,00000E+000	8	...........	-32768,00
	378	4,21322	4,78060E-001	7,28205E-005	0,00000E+000	4,78187E-001	0,00000E+000	8	...........	-32768,00
	381	4,24657	4,81047E-001	7,85671E-005	0,00000E+000	4,81187E-001	0,00000E+000	8	...........	-32768,00
	384	4,27992	4,84038E-001	8,46410E-005	0,00000E+000	4,84187E-001	0,00000E+000	8	...........	-32768,00
	387	4,31327	4,87059E-001	9,11331E-005	0,00000E+000	4,87200E-001	0,00000E+000	8	...........	-32768,00
	390	4,34662	4,90060E-001	9,79386E-005	0,00000E+000	4,90200E-001	0,00000E+000	9	...........	-32768,00
	393	4,37997	4,93061E-001	1,05069E-004	0,00000E+000	4,93200E-001	0,00000E+000	9	...........	-32768,00
	396	4,41332	4,96060E-001	1,12590E-004	0,00000E+000	4,96200E-001	0,00000E+000	9	...........	-32768,00
	399	4,44667	4,99056E-001	1,20516E-004	0,00000E+000	4,99201E-001	0,00000E+000	9	...........	-32768,00
	402	4,48002	5,02069E-001	1,28779E-004	0,00000E+000	5,02201E-001	0,00000E+000	9	...........	-32768,00
	405	4,51337	5,05073E-001	1,37449E-004	0,00000E+000	5,05201E-001	0,00000E+000	9	...........	-32768,00
	408	4,54672	5,08073E-001	1,46447E-004	0,00000E+000	5,08201E-001	0,00000E+000	9	...........	-32768,00
	411	4,58007	5,11058E-001	1,55836E-004	0,00000E+000	5,11202E-001	0,00000E+000	9	...........	-32768,00
	414	4,61342	5,14082E-001	1,65657E-004	0,00000E+000	5,14202E-001	0,00000E+000	9	...........	-32768,00
	417	4,64677	5,17092E-001	1,75974E-004	0,00000E+000	5,17215E-001	0,00000E+000	9	...........	-32768,00
	420	4,68012	5,20096E-001	1,86502E-004	0,00000E+000	5,20215E-001	0,00000E+000	9	...........	-32768,00
	423	4,71347	5,23087E-001	1,97523E-004	0,00000E+000	5,23215E-001	0,00000E+000	9	...........	-32768,00
	426	4,74682	5,26099E-001	2,08818E-004	0,00000E+000	5,26215E-001	0,00000E+000	9	...........	-32768,00
	429	4,78017	5,29103E-001	2,20526E-004	0,00000E+000	5,29216E-001	0,00000E+000	9	...........	-32768,00
	432	4,81352	5,32101E-001	2,32498E-004	0,00000E+000	5,32216E-001	0,00000E+000	9	...........	-32768,00
	435	4,84687	5,35096E-001	2,44862E-004	0,00000E+000	5,35216E-001	0,00000E+000	9	...........	-32768,00
	438	4,88022	5,38096E-001	2,57537E-004	0,00000E+000	5,38216E-001	0,00000E+000	9	...........	-32768,00
	441	4,91357	5,41112E-001	2,70565E-004	0,00000E+000	5,41217E-001	0,00000E+000	9	...........	-32768,00
	444	4,94692	5,44097E-001	2,83858E-004	0,00000E+000	5,44217E-001	0,00000E+000	9	...........	-32768,00
	447	4,98027	5,47105E-001	2,97584E-004	0,00000E+000	5,47230E-001	0,00000E+000	9	...........	-32768,00
	450	5,01362	5,50102E-001	3,11432E-004	0,00000E+000	5,50230E-001	0,00000E+000	9	...........	-32768,00
	453	5,04697	5,53107E-001	3,25504E-004	0,00000E+000	5,53230E-001	0,00000E+000	9	...........	-32768,00
	456	5,08032	5,56107E-001	3,39903E-004	0,00000E+000	5,56230E-001	0,00000E+000	9	...........	-32768,00
	459	5,11367	5,59106E-001	3,54584E-004	0,00000E+000	5,59231E-001	0,00000E+000	9	...........	-32768,00
	462	5,14702	5,62103E-001	3,69527E-004	0,00000E+000	5,62231E-001	0,00000E+000	9	...........	-32768,00
	465	5,18037	5,65130E-001	3,84739E-004	0,00000E+000	5,65231E-001	0,00000E+000	9	...........	-32768,00
	468	5,21372	5,68126E-001	4,00263E-004	0,00000E+000	5,68231E-001	0,00000E+000	9	...........	-32768,00
	471	5,24707	5,71108E-001	4,15934E-004	0,00000E+000	5,71231E-001	0,00000E+000	9	...........	-32768,00
	474	5,28042	5,74122E-001	4,31825E-004	0,00000E+000	5,74232E-001	0,00000E+000	9	...........	-32768,00
	477	5,31377	5,77146E-001	4,48229E-004	0,00000E+000	5,77244E-001	0,00000E+000	9	...........	-32768,00
	480	5,34712	5,80140E-001	4,64454E-004	0,00000E+000	5,80245E-001	0,00000E+000	9	...........	-32768,00
	483	5,38047	5,83141E-001	4,81048E-004	0,00000E+000	5,83245E-001	0,00000E+000	9	...........	-32768,00
	486	5,41382	5,86123E-001	4,97788E-004	0,00000E+000	5,86245E-001	0,00000E+000	9	...........	-32768,00
	489	5,44717	5,89129E-001	5,14733E-004	0,00000E+000	5,89245E-001	0,00000E+000	9	...........	-32768,00
	492	5,48052	5,92144E-001	5,31866E-004	0,00000E+000	5,92246E-001	0,00000E+000	9	...........	-32768,00
	495	5,51387	5,95137E-001	5,49185E-004	0,00000E+000	5,95246E-001	0,00000E+000	9	...........	-32768,00
	498	5,54722	5,98127E-001	5,66634E-004	0,00000E+000	5,98246E-001	0,00000E+000	9	...........	-32768,00
	501	5,58057	6,01137E-001	5,84216E-004	0,00000E+000	6,01246E-001	0,00000E+000	9	...........	-32768,00
	504	5,61392	6,04153E-001	6,01904E-004	0,00000E+000	6,04247E-001	0,00000E+000	9	...........	-32768,00
	507	5,64727	6,07164E-001	6,19559E-004	0,00000E+000	6,07259E-001	0,00000E+000	9	...........	-32768,00
	510	5,68062	6,10152E-001	6,37064E-004	0,00000E+000	6,10260E-001	0,00000E+000	9	...........	-32768,00
	513	5,71397	6,13137E-001	6,54655E-004	0,00000E+000	6,13260E-001	0,00000E+000	9	...........	-32768,00
	516	5,74732	6,16170E-001	6,71989E-004	0,00000E+000	6,16260E-001	0,00000E+000	9	...........	-32768,00
	519	5,78067	6,19157E-001	6,89068E-004	0,00000E+000	6,19260E-001	0,00000E+000	9	...........	-32768,00
	522	5,81402	6,22144E-001	7,05807E-004	0,00000E+000	6,22261E-001	0,00000E+000	9	...........	-32768,00
	525	5,84737	6,25149E-001	7,21696E-004	0,00000E+000	6,25261E-001	0,00000E+000	9	...........	-32768,00
	528	5,88072	6,28150E-001	7,36985E-004	0,00000E+000	6,28261E-001	0,00000E+000	9	...........	-32768,00
	531	5,91407	6,31175E-001	7,51433E-004	0,00000E+000	6,31261E-001	0,00000E+000	9	...........	-32768,00
	534	5,94742	6,34162E-001	7,64749E-004	0,00000E+000	6,34262E-001	0,00000E+000	9	...........	-32768,00
	537	5,98077	6,37170E-001	7,76820E-004	0,00000E+000	6,37274E-001	0,00000E+000	9	...........	-32768,00
	540	6,01412	6,40169E-001	7,87158E-004	0,00000E+000	6,40275E-001	0,00000E+000	9	...........	-32768,00
	543	6,04747	6,43187E-001	7,95455E-004	0,00000E+000	6,43275E-001	0,00000E+000	9	...........	-32768,00
	546	6,08082	6,46200E-001	8,01252E-004	0,00000E+000	6,46275E-001	0,00000E+000	9	...........	-32768,00
	549	6,11417	6,49186E-001	8,04312E-004	0,00000E+000	6,49275E-001	0,00000E+000	9	...........	-32768,00
	552	6,14752	6,52177E-001	8,04916E-004	0,00000E+000	6,52276E-001	0,00000E+000	9	...........	-32768,00
	555	6,18087	6,55203E-001	8,02046E-004	0,00000E+000	6,55276E-001	0,00000E+000	9	...........	-32768,00
	558	6,21422	6,58200E-001	7,95754E-004	0,00000E+000	6,58276E-001	0,00000E+000	9	...........	-32768,00
	561	6,24757	6,61190E-001	7,85983E-004	0,00000E+000	6,61276E-001	0,00000E+000	9	...........	-32768,00
	564	6,28092	6,64174E-001	7,71869E-004	0,00000E+000	6,64276E-001	0,00000E+000	9	...........	-32768,00
	567	6,31427	6,67207E-001	7,52352E-004	0,00000E+000	6,67289E-001	0,00000E+000	9	...........	-32768,00
	570	6,34762	6,70210E-001	7,27234E-004	0,00000E+000	6,70289E-001	0,00000E+000	9	...........	-32768,00
	573	6,38097	6,73222E-001	6,94997E-004	0,00000E+000	6,73290E-001	0,00000E+000	9	...........	-32768,00
	576	6,41432	6,76209E-001	6,53852E-004	0,00000E+000	6,76290E-001	0,00000E+000	9	...........	-32768,00
	579	6,44767	6,79208E-001	6,01269E-004	0,00000E+000	6,79290E-001	0,00000E+000	9	...........	-32768,00
	582	6,48102	6,82238E-001	5,28589E-004	0,00000E+000	6,82290E-001	0,00000E+000	9	...........	-32768,00
	585	6,51437	6,85239E-001	4,27733E-004	0,00000E+000	6,85291E-001	0,00000E+000	9	...........	-32768,00
	588	6,54772	6,88219E-001	3,17932E-004	0,00000E+000	6,88291E-001	0,00000E+000	9	...........	-32768,00
	591	6,58107	6,91214E-001	2,31687E-004	0,00000E+000	6,91291E-001	0,00000E+000	9	...........	-32768,00
	594	6,61442	6,94236E-001	1,96077E-004	0,00000E+000	6,94291E-001	0,00000E+000	9	...........	-32768,00
	597	6,64777	6,97245E-001	1,75566E-004	0,00000E+000	6,97304E-001	0,00000E+000	9	...........	-32768,00
	600	6,68112	7,00237E-001	1,60883E-004	0,00000E+000	7,00304E-001	0,00000E+000	9	...........	-32768,00
	603	6,71447	7,03228E-001	1,49406E-004	0,00000E+000	7,03305E-001	0,00000E+000	9	...........	-32768,00
	606	6,74782	7,06246E-001	1,40152E-004	0,00000E+000	7,06305E-001	0,00000E+000	9	...........	-32768,00
	609	6,78117	7,09235E-001	1,32540E-004	0,00000E+000	7,09305E-001	0,00000E+000	9	...........	-32768,00
	612	6,81452	7,12249E-001	1,26124E-004	0,00000E+000	7,12305E-001	0,00000E+000	9	...........	-32768,00
	615	6,84787	7,15235E-001	1,20533E-004	0,00000E+000	7,15306E-001	0,00000E+000	9	...........	-32768,00
	618	6,88122	7,18268E-001	1,15729E-004	0,00000E+000	7,18306E-001	0,00000E+000	9	...........	-32768,00
	621	6,91457	7,21255E-001	1,11574E-004	0,00000E+000	7,21306E-001	0,00000E+000	9	...........	-32768,00
	624	6,94792	7,24254E-001	1,07860E-004	0,00000E+000	7,24306E-001	0,00000E+000	9	...........	-32768,00
	627	6,98127	7,27252E-001	1,04526E-004	0,00000E+000	7,27319E-001	0,00000E+000	9	...........	-32768,00
	630	7,01462	7,30239E-001	1,01572E-004	0,00000E+000	7,30319E-001	0,00000E+000	9	...........	-32768,00
	633	7,04797	7,33266E-001	9,88786E-005	0,00000E+000	7,33320E-001	0,00000E+000	9	...........	-32768,00
	636	7,08132	7,36283E-001	9,63770E-005	0,00000E+000	7,36320E-001	0,00000E+000	9	...........	-32768,00
	639	7,11467	7,39276E-001	9,40813E-005	0,00000E+000	7,39320E-001	0,00000E+000	9	...........	-32768,00
	642	7,14802	7,42258E-001	9,21056E-005	0,00000E+000	7,42320E-001	0,00000E+000	9	...........	-32768,00
	645	7,18137	7,45292E-001	9,02097E-005	0,00000E+000	7,45320E-001	0,00000E+000	9	...........	-32768,00
	648	7,21472	7,48297E-001	8,84842E-005	0,00000E+000	7,48321E-001	0,00000E+000	9	...........	-32768,00
	651	7,24807	7,51275E-001	8,68495E-005	0,00000E+000	7,51321E-001	0,00000E+000	9	...........	-32768,00
	654	7,28142	7,54272E-001	8,54159E-005	0,00000E+000	7,54321E-001	0,00000E+000	9	...........	-32768,00
	657	7,31477	7,57298E-001	8,40458E-005	0,00000E+000	7,57334E-001	0,00000E+000	9	...........	-32768,00
	660	7,34812	7,60286E-001	8,27598E-005	0,00000E+000	7,60334E-001	0,00000E+000	9	...........	-32768,00
	663	7,38147	7,63290E-001	8,15882E-005	0,00000E+000	7,63334E-001	0,00000E+000	9	...........	-32768,00
	666	7,41482	7,66282E-001	8,04014E-005	0,00000E+000	7,66335E-001	0,00000E+000	8	...........	-32768,00
	669	7,44817	7,69289E-001	7,93499E-005	0,00000E+000	7,69335E-001	0,00000E+000	8	...........	-32768,00
	672	7,48152	7,72302E-001	7,83228E-005	0,00000E+000	7,72335E-001	0,00000E+000	8	...........	-32768,00
	675	7,51487	7,75306E-001	7,74281E-005	0,00000E+000	7,75335E-001	0,00000E+000	8	...........	-32768,00
	678	7,54822	7,78277E-001	7,65264E-005	0,00000E+000	7,78336E-001	0,00000E+000	8	...........	-32768,00
	681	7,58157	7,81277E-001	7,57410E-005	0,00000E+000	7,81336E-001	0,00000E+000	8	...........	-32768,00
	684	7,61492	7,84296E-001	7,49046E-005	0,00000E+000	7,84336E-001	0,00000E+000	8	...........	-32768,00
	687	7,64827	7,87300E-001	7,41361E-005	0,00000E+000	7,87349E-001	0,00000E+000	8	...........	-32768,00
	690	7,68162	7,90308E-001	7,34458E-005	0,00000E+000	7,90349E-001	0,00000E+000	8	...........	-32768,00
	693	7,71497	7,93296E-001	7,26782E-005	0,00000E+000	7,93349E-001	0,00000E+000	8	...........	-32768,00
	696	7,74832	7,96309E-001	7,21031E-005	0,00000E+000	7,96350E-001	0,00000E+000	8	...........	-32768,00
	699	7,78167	7,99310E-001	7,14056E-005	0,00000E+000	7,99350E-001	0,00000E+000	8	...........	-32768,00
	702	7,81502	7,98324E-001	6,93207E-005	0,00000E+000	7,98350E-001	0,00000E+000	8	...........	-32768,00
	705	7,84837	7,95324E-001	6,67316E-005	0,00000E+000	7,95349E-001	0,00000E+000	8	...........	-32768,00
	708	7,88172	7,92300E-001	6,44547E-005	0,00000E+000	7,92349E-001	0,00000E+000	8	...........	-32768,00
	711	7,91507	7,89313E-001	6,22721E-005	0,00000E+000	7,89349E-001	0,00000E+000	8	...........	-32768,00
	714	7,94842	7,86308E-001	6,03092E-005	0,00000E+000	7,86349E-001	0,00000E+000	8	...........	-32768,00
	717	7,98177	7,83291E-001	5,84290E-005	0,00000E+000	7,83336E-001	0,00000E+000	8	...........	-32768,00
	720	8,01512	7,80284E-001	5,66846E-005	0,00000E+000	7,80336E-001	0,00000E+000	8	...........	-32768,00
	723	8,04847	7,77273E-001	5,50269E-005	0,00000E+000	7,77336E-001	0,00000E+000	8	...........	-32768,00
	726	8,08182	7,74305E-001	5,34015E-005	0,00000E+000	7,74335E-001	0,00000E+000	8	...........	-32768,00
	729	8,11517	7,71299E-001	5,18902E-005	0,00000E+000	7,71335E-001	0,00000E+000	8	...........	-32768,00
	732	8,14852	7,68276E-001	5,05172E-005	0,00000E+000	7,68335E-001	0,00000E+000	8	...........	-32768,00
	735	8,18187	7,65273E-001	4,91790E-005	0,00000E+000	7,65335E-001	0,00000E+000	8	...........	-32768,00
	738	8,21522	7,62286E-001	4,79136E-005	0,00000E+000	7,62334E-001	0,00000E+000	8	...........	-32768,00
	741	8,24857	7,59278E-001	4,67518E-005	0,00000E+000	7,59334E-001	0,00000E+000	8	...........	-32768,00
	744	8,28192	7,56303E-001	4,56297E-005	0,00000E+000	7,56334E-001	0,00000E+000	8	...........	-32768,00
	747	8,31527	7,53283E-001	4,44651E-005	0,00000E+000	7,53321E-001	0,00000E+000	8	...........	-32768,00
	750	8,34862	7,50266E-001	4,34422E-005	0,00000E+000	7,50321E-001	0,00000E+000	8	...........	-32768,00
	753	8,38197	7,47282E-001	4,24055E-005	0,00000E+000	7,47321E-001	0,00000E+000	8	...........	-32768,00
	756	8,41532	7,44278E-001	4,14291E-005	0,00000E+000	7,44320E-001	0,00000E+000	8	...........	-32768,00
	759	8,44867	7,41259E-001	4,06041E-005	0,00000E+000	7,41320E-001	0,00000E+000	8	...........	-32768,00
	762	8,48202	7,38261E-001	3,95771E-005	0,00000E+000	7,38320E-001	0,00000E+000	8	...........	-32768,00
	765	8,51537	7,35265E-001	3,87064E-005	0,00000E+000	7,35320E-001	0,00000E+000	8	...........	-32768,00
	768	8,54872	7,32258E-001	3,78689E-005	0,00000E+000	7,32319E-001	0,00000E+000	8	...........	-32768,00
	771	8,58207	7,29262E-001	3,70492E-005	0,00000E+000	7,29319E-001	0,00000E+000	8	...........	-32768,00
	774	8,61542	7,26275E-001	3,62785E-005	0,00000E+000	7,26319E-001	0,00000E+000	8	...........	-32768,00
	777	8,64877	7,23248E-001	3,55200E-005	0,00000E+000	7,23306E-001	0,00000E+000	8	...........	-32768,00
	780	8,68212	7,20247E-001	3,47739E-005	0,00000E+000	7,20306E-001	0,00000E+000	8	...........	-32768,00
	783	8,71547	7,17225E-001	3,40638E-005	0,00000E+000	7,17306E-001	0,00000E+000	8	...........	-32768,00
	786	8,74882	7,14223E-001	3,33659E-005	0,00000E+000	7,14305E-001	0,00000E+000	8	...........	-32768,00
	789	8,78217	7,11236E-001	3,26867E-005	0,00000E+000	7,11305E-001	0,00000E+000	8	...........	-32768,00
	792	8,81552	7,08260E-001	3,20562E-005	0,00000E+000	7,08305E-001	0,00000E+000	8	...........	-32768,00
	795	8,84887	7,05260E-001	3,14187E-005	0,00000E+000	7,05305E-001	0,00000E+000	8	...........	-32768,00
	798	8,88222	7,02229E-001	3,08105E-005	0,00000E+000	7,02304E-001	0,00000E+000	8	...........	-32768,00
	801	8,91557	6,99242E-001	3,02343E-005	0,00000E+000	6,99304E-001	0,00000E+000	8	...........	-32768,00
	804	8,94892	6,96238E-001	2,96258E-005	0,00000E+000	6,96304E-001	0,00000E+000	8	...........	-32768,00
	807	8,98227	6,93229E-001	2,90562E-005	0,00000E+000	6,93291E-001	0,00000E+000	8	...........	-32768,00
	810	9,01562	6,90208E-001	2,84965E-005	0,00000E+000	6,90291E-001	0,00000E+000	8	...........	-32768,00
	813	9,04897	6,87223E-001	2,79440E-005	0,00000E+000	6,87291E-001	0,00000E+000	8	...........	-32768,00
	816	9,08232	6,84219E-001	2,73955E-005	0,00000E+000	6,84291E-001	0,00000E+000	8	...........	-32768,00
	819	9,11567	6,81207E-001	2,68848E-005	0,00000E+000	6,81290E-001	0,00000E+000	8	...........	-32768,00
	822	9,14902	6,78191E-001	2,63847E-005	0,00000E+000	6,78290E-001	0,00000E+000	8	...........	-32768,00
	825	9,18237	6,75210E-001	2,58866E-005	0,00000E+000	6,75290E-001	0,00000E+000	8	...........	-32768,00
	828	9,21572	6,72193E-001	2,54048E-005	0,00000E+000	6,72290E-001	0,00000E+000	8	...........	-32768,00
	831	9,24907	6,69200E-001	2,49237E-005	0,00000E+000	6,69289E-001	0,00000E+000	8	...........	-32768,00
	834	9,28242	6,66191E-001	2,44578E-005	0,00000E+000	6,66289E-001	0,00000E+000	8	...........	-32768,00
	837	9,31577	6,63170E-001	2,40043E-005	0,00000E+000	6,63276E-001	0,00000E+000	8	...........	-32768,00
	840	9,34912	6,60174E-001	2,35367E-005	0,00000E+000	6,60276E-001	0,00000E+000	8	...........	-32768,00
	843	9,38247	6,57181E-001	2,30993E-005	0,00000E+000	6,57276E-001	0,00000E+000	8	...........	-32768,00
	846	9,41582	6,54195E-001	2,26730E-005	0,00000E+000	6,54276E-001	0,00000E+000	8	...........	-32768,00
	849	9,44917	6,51179E-001	2,22239E-005	0,00000E+000	6,51275E-001	0,00000E+000	8	...........	-32768,00
	852	9,48252	6,48179E-001	2,17949E-005	0,00000E+000	6,48275E-001	0,00000E+000	8	...........	-32768,00
	855	9,5159	6,45181E-001	2,13814E-005	0,00000E+000	6,45275E-001	0,00000E+000	8	...........	-32768,00
	858	9,5492	6,42192E-001	2,09709E-005	0,00000E+000	6,42275E-001	0,00000E+000	8	...........	-32768,00
	861	9,5826	6,39180E-001	2,05698E-005	0,00000E+000	6,39274E-001	0,00000E+000	8	...........	-32768,00
	864	9,6159	6,36185E-001	2,01626E-005	0,00000E+000	6,36274E-001	0,00000E+000	8	...........	-32768,00
	867	9,6493	6,33170E-001	1,97599E-005	0,00000E+000	6,33261E-001	0,00000E+000	8	...........	-32768,00
	870	9,6826	6,30173E-001	1,93699E-005	0,00000E+000	6,30261E-001	0,00000E+000	8	...........	-32768,00
	873	9,716	6,27161E-001	1,89774E-005	0,00000E+000	6,27261E-001	0,00000E+000	8	...........	-32768,00
	876	9,7493	6,24146E-001	1,85862E-005	0,00000E+000	6,24261E-001	0,00000E+000	8	...........	-32768,00
	879	9,7827	6,21143E-001	1,82068E-005	0,00000E+000	6,21261E-001	0,00000E+000	8	...........	-32768,00
	882	9,816	6,18162E-001	1,78417E-005	0,00000E+000	6,18260E-001	0,00000E+000	8	...........	-32768,00
	885	9,8494	6,15150E-001	1,74594E-005	0,00000E+000	6,15260E-001	0,00000E+000	8	...........	-32768,00
	888	9,8827	6,12158E-001	1,70880E-005	0,00000E+000	6,12260E-001	0,00000E+000	8	...........	-32768,00
	891	9,9161	6,09174E-001	1,67052E-005	0,00000E+000	6,09260E-001	0,00000E+000	8	...........	-32768,00
	894	9,9494	6,06154E-001	1,63403E-005	0,00000E+000	6,06247E-001	0,00000E+000	8	...........	-32768,00
	897	9,9828	6,03177E-001	1,59717E-005	0,00000E+000	6,03247E-001	0,00000E+000	8	...........	-32768,00
	900	10,0161	6,00141E-001	1,56121E-005	0,00000E+000	6,00246E-001	0,00000E+000	8	...........	-32768,00
	903	10,0495	5,97126E-001	1,52455E-005	0,00000E+000	5,97246E-001	0,00000E+000	8	...........	-32768,00
	906	10,0828	5,94144E-001	1,48881E-005	0,00000E+000	5,94246E-001	0,00000E+000	8	...........	-32768,00
	909	10,1162	5,91149E-001	1,45271E-005	0,00000E+000	5,91246E-001	0,00000E+000	8	...........	-32768,00
	912	10,1495	5,88137E-001	1,41603E-005	0,00000E+000	5,88245E-001	0,00000E+000	8	...........	-32768,00
	915	10,1829	5,85135E-001	1,37988E-005	0,00000E+000	5,85245E-001	0,00000E+000	8	...........	-32768,00
	918	10,2162	5,82132E-001	1,34393E-005	0,00000E+000	5,82245E-001	0,00000E+000	8	...........	-32768,00
	921	10,2496	5,79139E-001	1,30849E-005	0,00000E+000	5,79245E-001	0,00000E+000	8	...........	-32768,00
	924	10,2829	5,76102E-001	1,27250E-005	0,00000E+000	5,76232E-001	0,00000E+000	8	...........	-32768,00
	927	10,3163	5,73100E-001	1,23636E-005	0,00000E+000	5,73232E-001	0,00000E+000	8	...........	-32768,00
	930	10,3496	5,70102E-001	1,20117E-005	0,00000E+000	5,70231E-001	0,00000E+000	8	...........	-32768,00
	933	10,383	5,67114E-001	1,16546E-005	0,00000E+000	5,67231E-001	0,00000E+000	8	...........	-32768,00
	936	10,4163	5,64114E-001	1,13187E-005	0,00000E+000	5,64231E-001	0,00000E+000	8	...........	-32768,00
	939	10,4497	5,61100E-001	1,09766E-005	0,00000E+000	5,61231E-001	0,00000E+000	8	...........	-32768,00
	942	10,483	5,58096E-001	1,06491E-005	0,00000E+000	5,58230E-001	0,00000E+000	8	...........	-32768,00
	945	10,5164	5,55111E-001	1,03250E-005	0,00000E+000	5,55230E-001	0,00000E+000	8	...........	-32768,00
	948	10,5497	5,52128E-001	1,00072E-005	0,00000E+000	5,52230E-001	0,00000E+000	8	...........	-32768,00
	951	10,5831	5,49092E-001	9,71237E-006	0,00000E+000	5,49230E-001	0,00000E+000	8	...........	-32768,00
	954	10,6164	5,46092E-001	9,41869E-006	0,00000E+000	5,46217E-001	0,00000E+000	8	...........	-32768,00
	957	10,6498	5,43087E-001	9,14246E-006	0,00000E+000	5,43217E-001	0,00000E+000	8	...........	-32768,00
	960	10,6831	5,40104E-001	8,87116E-006	0,00000E+000	5,40217E-001	0,00000E+000	8	...........	-32768,00
	963	10,7165	5,37092E-001	8,60681E-006	0,00000E+000	5,37216E-001	0,00000E+000	8	...........	-32768,00
	966	10,7498	5,34100E-001	8,35869E-006	0,00000E+000	5,34216E-001	0,00000E+000	8	...........	-32768,00
	969	10,7832	5,31097E-001	8,10462E-006	0,00000E+000	5,31216E-001	0,00000E+000	8	...........	-32768,00
	972	10,8165	5,28090E-001	7,86826E-006	0,00000E+000	5,28216E-001	0,00000E+000	8	...........	-32768,00
	975	10,8499	5,25063E-001	7,63026E-006	0,00000E+000	5,25215E-001	0,00000E+000	8	...........	-32768,00
	978	10,8832	5,22079E-001	7,39912E-006	0,00000E+000	5,22215E-001	0,00000E+000	8	...........	-32768,00
	981	10,9166	5,19077E-001	7,17173E-006	0,00000E+000	5,19215E-001	0,00000E+000	8	...........	-32768,00
	984	10,9499	5,16073E-001	6,93569E-006	0,00000E+000	5,16202E-001	0,00000E+000	8	...........	-32768,00
	987	10,9833	5,13077E-001	6,70408E-006	0,00000E+000	5,13202E-001	0,00000E+000	8	...........	-32768,00
	990	11,0166	5,10065E-001	6,48017E-006	0,00000E+000	5,10202E-001	0,00000E+000	8	...........	-32768,00
	993	11,05	5,07070E-001	6,24255E-006	0,00000E+000	5,07201E-001	0,00000E+000	8	...........	-32768,00
	996	11,0833	5,04077E-001	6,00581E-006	0,00000E+000	5,04201E-001	0,00000E+000	8	...........	-32768,00
	999	11,1167	5,01077E-001	5,76483E-006	0,00000E+000	5,01201E-001	0,00000E+000	8	...........	-32768,00
	1002	11,15	4,98046E-001	5,51716E-006	0,00000E+000	4,98201E-001	0,00000E+000	8	...........	-32768,00
	1005	11,1834	4,95058E-001	5,27241E-006	0,00000E+000	4,95200E-001	0,00000E+000	8	...........	-32768,00
	1008	11,2167	4,92075E-001	5,01522E-006	0,00000E+000	4,92200E-001	0,00000E+000	8	...........	-32768,00
	1011	11,2501	4,89076E-001	4,74836E-006	0,00000E+000	4,89200E-001	0,00000E+000	8	...........	-32768,00
	1014	11,2834	4,86046E-001	4,48869E-006	0,00000E+000	4,86187E-001	0,00000E+000	8	...........	-32768,00
	1017	11,3168	4,83047E-001	4,20382E-006	0,00000E+000	4,83187E-001	0,00000E+000	8	...........	-32768,00
	1020	11,3501	4,80048E-001	3,92348E-006	0,00000E+000	4,80187E-001	0,00000E+000	8	...........	-32768,00
	1023	11,3835	4,77044E-001	3,62090E-006	0,00000E+000	4,77186E-001	0,00000E+000	8	...........	-32768,00
	1026	11,4168	4,74035E-001	3,30569E-006	0,00000E+000	4,74186E-001	0,00000E+000	8	...........	-32768,00
	1029	11,4502	4,71026E-001	2,97041E-006	0,00000E+000	4,71186E-001	0,00000E+000	8	...........	-32768,00
	1032	11,4835	4,68033E-001	2,61682E-006	0,00000E+000	4,68186E-001	0,00000E+000	8	...........	-32768,00
	1035	11,5169	4,65043E-001	2,21742E-006	0,00000E+000	4,65185E-001	0,00000E+000	8	...........	-32768,00
	1038	11,5502	4,62058E-001	1,77064E-006	0,00000E+000	4,62185E-001	0,00000E+000	8	...........	-32768,00
	1041	11,5836	4,59032E-001	1,20367E-006	0,00000E+000	4,59185E-001	0,00000E+000	8	...........	-32768,00
	1044	11,6169	4,56022E-001	3,84182E-007	0,00000E+000	4,56172E-001	0,00000E+000	8	...........	-32768,00
	1047	11,6503	4,53028E-001	-8,80651E-007	0,00000E+000	4,53172E-001	0,00000E+000	8	...........	-32768,00
	1050	11,6836	4,50035E-001	-2,95098E-006	0,00000E+000	4,50172E-001	0,00000E+000	8	...........	-32768,00
	1053	11,717	4,47029E-001	-6,25243E-006	0,00000E+000	4,47172E-001	0,00000E+000	8	...........	-32768,00
	1056	11,7503	4,44018E-001	-1,12229E-005	0,00000E+000	4,44171E-001	0,00000E+000	8	...........	-32768,00
	1059	11,7837	4,41029E-001	-1,83776E-005	0,00000E+000	4,41171E-001	0,00000E+000	8	...........	-32768,00
	1062	11,817	4,38041E-001	-2,79762E-005	0,00000E+000	4,38171E-001	0,00000E+000	8	...........	-32768,00
	1065	11,8504	4,35024E-001	-4,00722E-005	0,00000E+000	4,35171E-001	0,00000E+000	8	...........	-32768,00
	1068	11,8837	4,32024E-001	-5,44940E-005	0,00000E+000	4,32170E-001	0,00000E+000	8	...........	-32768,00
	1071	11,9171	4,29036E-001	-7,08095E-005	0,00000E+000	4,29170E-001	0,00000E+000	8	...........	-32768,00
	1074	11,9504	4,26022E-001	-8,84557E-005	0,00000E+000	4,26157E-001	0,00000E+000	8	...........	-32768,00
	1077	11,9838	4,23007E-001	-1,06823E-004	0,00000E+000	4,23157E-001	0,00000E+000	9	...........	-32768,00
	1080	12,0171	4,20003E-001	-1,25356E-004	0,00000E+000	4,20157E-001	0,00000E+000	9	...........	-32768,00
	1083	12,0505	4,16999E-001	-1,43643E-004	0,00000E+000	4,17157E-001	0,00000E+000	9	...........	-32768,00
	1086	12,0838	4,14008E-001	-1,61338E-004	0,00000E+000	4,14156E-001	0,00000E+000	9	...........	-32768,00
	1089	12,1172	4,11004E-001	-1,78212E-004	0,00000E+000	4,11156E-001	0,00000E+000	9	...........	-32768,00
	1092	12,1505	4,07997E-001	-1,94064E-004	0,00000E+000	4,08156E-001	0,00000E+000	9	...........	-32768,00
	1095	12,1839	4,05013E-001	-2,08800E-004	0,00000E+000	4,05156E-001	0,00000E+000	9	...........	-32768,00
	1098	12,2172	4,02020E-001	-2,22474E-004	0,00000E+000	4,02155E-001	0,00000E+000	9	...........	-32768,00
	1101	12,2506	3,99005E-001	-2,35057E-004	0,00000E+000	3,99155E-001	0,00000E+000	9	...........	-32768,00
	1104	12,2839	3,95984E-001	-2,46561E-004	0,00000E+000	3,96142E-001	0,00000E+000	9	...........	-32768,00
	1107	12,3173	3,92997E-001	-2,57008E-004	0,00000E+000	3,93142E-001	0,00000E+000	9	...........	-32768,00
	1110	12,3506	3,90000E-001	-2,66393E-004	0,00000E+000	3,90142E-001	0,00000E+000	9	...........	-32768,00
	1113	12,384	3,87002E-001	-2,74787E-004	0,00000E+000	3,87142E-001	0,00000E+000	9	...........	-32768,00
	1116	12,4173	3,83992E-001	-2,82168E-004	0,00000E+000	3,84141E-001	0,00000E+000	9	...........	-32768,00
	1119	12,4507	3,80979E-001	-2,88539E-004	0,00000E+000	3,81141E-001	0,00000E+000	9	...........	-32768,00
	1122	12,484	3,77991E-001	-2,93909E-004	0,00000E+000	3,78141E-001	0,00000E+000	9	...........	-32768,00
	1125	12,5174	3,74991E-001	-2,98204E-004	0,00000E+000	3,75141E-001	0,00000E+000	9	...........	-32768,00
	1128	12,5507	3,71977E-001	-3,01502E-004	0,00000E+000	3,72141E-001	0,00000E+000	9	...........	-32768,00
	1131	12,5841	3,68980E-001	-3,03815E-004	0,00000E+000	3,69140E-001	0,00000E+000	9	...........	-32768,00
	1134	12,6174	3,65980E-001	-3,05119E-004	0,00000E+000	3,66128E-001	0,00000E+000	9	...........	-32768,00
	1137	12,6508	3,62988E-001	-3,05544E-004	0,00000E+000	3,63127E-001	0,00000E+000	9	...........	-32768,00
	1140	12,6841	3,59977E-001	-3,05083E-004	0,00000E+000	3,60127E-001	0,00000E+000	9	...........	-32768,00
	1143	12,7175	3,56957E-001	-3,03812E-004	0,00000E+000	3,57127E-001	0,00000E+000	9	...........	-32768,00
	1146	12,7508	3,53964E-001	-3,01848E-004	0,00000E+000	3,54127E-001	0,00000E+000	9	...........	-32768,00
	1149	12,7842	3,50964E-001	-2,99280E-004	0,00000E+000	3,51126E-001	0,00000E+000	9	...........	-32768,00
	1152	12,8175	3,47965E-001	-2,96119E-004	0,00000E+000	3,48126E-001	0,00000E+000	9	...........	-32768,00
	1155	12,8509	3,44965E-001	-2,92513E-004	0,00000E+000	3,45126E-001	0,00000E+000	9	...........	-32768,00
	1158	12,8842	3,41963E-001	-2,88533E-004	0,00000E+000	3,42126E-001	0,00000E+000	9	...........	-32768,00
	1161	12,9176	3,38948E-001	-2,84186E-004	0,00000E+000	3,39125E-001	0,00000E+000	9	...........	-32768,00
	1164	12,9509	3,35966E-001	-2,79570E-004	0,00000E+000	3,36113E-001	0,00000E+000	9	...........	-32768,00
	1167	12,9843	3,32944E-001	-2,74768E-004	0,00000E+000	3,33112E-001	0,00000E+000	9	...........	-32768,00
	1170	13,0176	3,29940E-001	-2,69871E-004	0,00000E+000	3,30112E-001	0,00000E+000	9	...........	-32768,00
	1173	13,051	3,26946E-001	-2,64810E-004	0,00000E+000	3,27112E-001	0,00000E+000	9	...........	-32768,00
	1176	13,0843	3,23959E-001	-2,59725E-004	0,00000E+000	3,24112E-001	0,00000E+000	9	...........	-32768,00
	1179	13,1177	3,20962E-001	-2,54604E-004	0,00000E+000	3,21111E-001	0,00000E+000	9	...........	-32768,00
	1182	13,151	3,17957E-001	-2,49505E-004	0,00000E+000	3,18111E-001	0,00000E+000	9	...........	-32768,00
	1185	13,1844	3,14935E-001	-2,44466E-004	0,00000E+000	3,15111E-001	0,00000E+000	9	...........	-32768,00
	1188	13,2177	3,11938E-001	-2,39507E-004	0,00000E+000	3,12111E-001	0,00000E+000	9	...........	-32768,00
	1191	13,2511	3,08936E-001	-2,34600E-004	0,00000E+000	3,09110E-001	0,00000E+000	9	...........	-32768,00
	1194	13,2844	3,05911E-001	-2,29841E-004	0,00000E+000	3,06098E-001	0,00000E+000	9	...........	-32768,00
	1197	13,3178	3,02926E-001	-2,25165E-004	0,00000E+000	3,03097E-001	0,00000E+000	9	...........	-32768,00
	1200	13,3511	2,99921E-001	-2,20630E-004	0,00000E+000	3,00097E-001	0,00000E+000	9	...........	-32768,00
	1203	13,3845	2,96934E-001	-2,16249E-004	0,00000E+000	2,97097E-001	0,00000E+000	9	...........	-32768,00
	1206	13,4178	2,93910E-001	-2,11985E-004	0,00000E+000	2,94097E-001	0,00000E+000	9	...........	-32768,00
	1209	13,4512	2,90908E-001	-2,07801E-004	0,00000E+000	2,91097E-001	0,00000E+000	9	...........	-32768,00
	1212	13,4845	2,87920E-001	-2,03835E-004	0,00000E+000	2,88096E-001	0,00000E+000	9	...........	-32768,00
	1215	13,5179	2,84917E-001	-1,99980E-004	0,00000E+000	2,85096E-001	0,00000E+000	9	...........	-32768,00
	1218	13,5512	2,81918E-001	-1,96217E-004	0,00000E+000	2,82096E-001	0,00000E+000	9	...........	-32768,00
	1221	13,5846	2,78915E-001	-1,92652E-004	0,00000E+000	2,79096E-001	0,00000E+000	9	...........	-32768,00
	1224	13,6179	2,75898E-001	-1,89231E-004	0,00000E+000	2,76083E-001	0,00000E+000	9	...........	-32768,00
	1227	13,6513	2,72914E-001	-1,85850E-004	0,00000E+000	2,73083E-001	0,00000E+000	9	...........	-32768,00
	1230	13,6846	2,69927E-001	-1,82625E-004	0,00000E+000	2,70082E-001	0,00000E+000	9	...........	-32768,00
	1233	13,718	2,66903E-001	-1,79541E-004	0,00000E+000	2,67082E-001	0,00000E+000	9	...........	-32768,00
	1236	13,7513	2,63911E-001	-1,76524E-004	0,00000E+000	2,64082E-001	0,00000E+000	9	...........	-32768,00
	1239	13,7847	2,60904E-001	-1,73655E-004	0,00000E+000	2,61082E-001	0,00000E+000	9	...........	-32768,00
	1242	13,818	2,57916E-001	-1,70863E-004	0,00000E+000	2,58081E-001	0,00000E+000	9	...........	-32768,00
	1245	13,8514	2,54887E-001	-1,68185E-004	0,00000E+000	2,55081E-001	0,00000E+000	9	...........	-32768,00
	1248	13,8847	2,51879E-001	-1,65589E-004	0,00000E+000	2,52081E-001	0,00000E+000	9	...........	-32768,00
	1251	13,9181	2,48891E-001	-1,63084E-004	0,00000E+000	2,49081E-001	0,00000E+000	9	...........	-32768,00
	1254	13,9514	2,45889E-001	-1,60669E-004	0,00000E+000	2,46068E-001	0,00000E+000	9	...........	-32768,00
	1257	13,9848	2,42867E-001	-1,58386E-004	0,00000E+000	2,43068E-001	0,00000E+000	9	...........	-32768,00
	1260	14,0181	2,39874E-001	-1,56133E-004	0,00000E+000	2,40067E-001	0,00000E+000	9	...........	-32768,00
	1263	14,0515	2,36885E-001	-1,53976E-004	0,00000E+000	2,37067E-001	0,00000E+000	9	...........	-32768,00
	1266	14,0848	2,33886E-001	-1,51889E-004	0,00000E+000	2,34067E-001	0,00000E+000	9	...........	-32768,00
	1269	14,1182	2,30876E-001	-1,49890E-004	0,00000E+000	2,31067E-001	0,00000E+000	9	...........	-32768,00
	1272	14,1515	2,27877E-001	-1,47918E-004	0,00000E+000	2,28066E-001	0,00000E+000	9	...........	-32768,00
	1275	14,1849	2,24871E-001	-1,46060E-004	0,00000E+000	2,25066E-001	0,00000E+000	9	...........	-32768,00
	1278	14,2182	2,21880E-001	-1,44258E-004	0,00000E+000	2,22066E-001	0,00000E+000	9	...........	-32768,00
	1281	14,2516	2,18879E-001	-1,42565E-004	0,00000E+000	2,19053E-001	0,00000E+000	9	...........	-32768,00
	1284	14,2849	2,15856E-001	-1,40877E-004	0,00000E+000	2,16053E-001	0,00000E+000	9	...........	-32768,00
	1287	14,3183	2,12863E-001	-1,39240E-004	0,00000E+000	2,13053E-001	0,00000E+000	9	...........	-32768,00
	1290	14,3516	2,09864E-001	-1,37675E-004	0,00000E+000	2,10053E-001	0,00000E+000	9	...........	-32768,00
	1293	14,385	2,06861E-001	-1,36126E-004	0,00000E+000	2,07052E-001	0,00000E+000	9	...........	-32768,00
	1296	14,4183	2,03862E-001	-1,34700E-004	0,00000E+000	2,04052E-001	0,00000E+000	9	...........	-32768,00
	1299	14,4517	2,00861E-001	-1,33326E-004	0,00000E+000	2,01052E-001	0,00000E+000	9	...........	-32768,00
	1302	14,485	1,97858E-001	-1,31971E-004	0,00000E+000	1,98052E-001	0,00000E+000	9	...........	-32768,00
	1305	14,5184	1,94868E-001	-1,30670E-004	0,00000E+000	1,95051E-001	0,00000E+000	9	...........	-32768,00
	1308	14,5517	1,91839E-001	-1,29434E-004	0,00000E+000	1,92051E-001	0,00000E+000	9	...........	-32768,00
	1311	14,5851	1,88839E-001	-1,28191E-004	0,00000E+000	1,89038E-001	0,00000E+000	9	...........	-32768,00
	1314	14,6184	1,85846E-001	-1,27077E-004	0,00000E+000	1,86038E-001	0,00000E+000	9	...........	-32768,00
	1317	14,6518	1,82841E-001	-1,25950E-004	0,00000E+000	1,83038E-001	0,00000E+000	9	...........	-32768,00
	1320	14,6851	1,79871E-001	-1,24885E-004	0,00000E+000	1,80038E-001	0,00000E+000	9	...........	-32768,00
	1323	14,7185	1,76843E-001	-1,23871E-004	0,00000E+000	1,77037E-001	0,00000E+000	9	...........	-32768,00
	1326	14,7518	1,73852E-001	-1,22857E-004	0,00000E+000	1,74037E-001	0,00000E+000	9	...........	-32768,00
	1329	14,7852	1,70848E-001	-1,21918E-004	0,00000E+000	1,71037E-001	0,00000E+000	9	...........	-32768,00
	1332	14,8185	1,67858E-001	-1,20984E-004	0,00000E+000	1,68037E-001	0,00000E+000	9	...........	-32768,00
	1335	14,8519	1,64843E-001	-1,20083E-004	0,00000E+000	1,65036E-001	0,00000E+000	9	...........	-32768,00
	1338	14,8852	1,61857E-001	-1,19225E-004	0,00000E+000	1,62036E-001	0,00000E+000	9	...........	-32768,00
	1341	14,9186	1,58821E-001	-1,18270E-004	0,00000E+000	1,59023E-001	0,00000E+000	9	...........	-32768,00
	1344	14,9519	1,55818E-001	-1,17452E-004	0,00000E+000	1,56023E-001	0,00000E+000	9	...........	-32768,00
	1347	14,9853	1,52827E-001	-1,16587E-004	0,00000E+000	1,53023E-001	0,00000E+000	9	...........	-32768,00
	1350	15,0186	1,49813E-001	-1,15756E-004	0,00000E+000	1,50023E-001	0,00000E+000	9	...........	-32768,00
	1353	15,052	1,46837E-001	-1,14959E-004	0,00000E+000	1,47022E-001	0,00000E+000	9	...........	-32768,00
	1356	15,0853	1,43827E-001	-1,14219E-004	0,00000E+000	1,44022E-001	0,00000E+000	9	...........	-32768,00
	1359	15,1187	1,40801E-001	-1,13536E-004	0,00000E+000	1,41022E-001	0,00000E+000	9	...........	-32768,00
	1362	15,152	1,37821E-001	-1,12902E-004	0,00000E+000	1,38022E-001	0,00000E+000	9	...........	-32768,00
	1365	15,1854	1,34827E-001	-1,12225E-004	0,00000E+000	1,35022E-001	0,00000E+000	9	...........	-32768,00
	1368	15,2187	1,31819E-001	-1,11537E-004	0,00000E+000	1,32021E-001	0,00000E+000	9	...........	-32768,00
	1371	15,2521	1,28824E-001	-1,10789E-004	0,00000E+000	1,29009E-001	0,00000E+000	9	...........	-32768,00
	1374	15,2854	1,25803E-001	-1,10070E-004	0,00000E+000	1,26008E-001	0,00000E+000	9	...........	-32768,00
	1377	15,3188	1,22803E-001	-1,09408E-004	0,00000E+000	1,23008E-001	0,00000E+000	9	...........	-32768,00
	1380	15,3521	1,19808E-001	-1,08750E-004	0,00000E+000	1,20008E-001	0,00000E+000	9	...........	-32768,00
	1383	15,3855	1,16815E-001	-1,08125E-004	0,00000E+000	1,17008E-001	0,00000E+000	9	...........	-32768,00
	1386	15,4188	1,13790E-001	-1,07535E-004	0,00000E+000	1,14007E-001	0,00000E+000	9	...........	-32768,00
	1389	15,4522	1,10804E-001	-1,06770E-004	0,00000E+000	1,11007E-001	0,00000E+000	9	...........	-32768,00
	1392	15,4855	1,07791E-001	-1,06076E-004	0,00000E+000	1,08007E-001	0,00000E+000	9	...........	-32768,00
	1395	15,5189	1,04802E-001	-1,05491E-004	0,00000E+000	1,05007E-001	0,00000E+000	9	...........	-32768,00
	1398	15,5522	1,01802E-001	-1,04891E-004	0,00000E+000	1,02006E-001	0,00000E+000	9	...........	-32768,00
	1400	15,5745	9,97938E-002	-1,04541E-004	0,00000E+000	1,00006E-001	0,00000E+000	9	...........	-32768,00