File: HOPG_cv/3mM/AgNO3_HOPG_3mM_10mv_1_cv.DTA
EXPLAIN
TAG	CV
TITLE	LABEL	Cyclic Voltammetry	Test &Identifier
DATE	LABEL	30/4/2022	Date
TIME	LABEL	16:11:20	Time
NOTES	NOTES	2	&Notes...
	30/04/22 , 5mM  AgNO3

PSTAT	PSTAT	IFC1000-09004	Potentiostat
VINIT	POTEN	1,00000E-001	F	Initial &E (V)
VLIMIT1	POTEN	1,00000E-001	F	Scan Limit &1 (V)
VLIMIT2	POTEN	8,00000E-001	F	Scan Limit &2 (V)
VFINAL	POTEN	1,00000E-001	F	Final &E (V)
SCANRATE	QUANT	9,99998E+000	&Scan Rate (mV/s)
STEPSIZE	QUANT	1,00000E+000	St&ep Size (mV)
CYCLES	IQUANT	1	C&ycles (#)
IMODE	SELECTOR	0	I/E Range &Mode
IRANGE	QUANT	1,00000E-005	&Max Current (mA)
AREA	QUANT	1,00000E+000	Electrode &Area (cm^2)
ELECTRODETYPE	SELECTOR	0	Electrode Type
STRIPPING	TOGGLE	F	Used for Stripping
POLARITY	TOGGLE	F	Signal Polarity
CONDIT	TWOPARAM	F	1,50000E+001	0,00000E+000	Conditionin&g	Time(s)	E(V)
DELAY	TWOPARAM	F	3,00000E+001	0,00000E+000	Init. De&lay	Time(s)	Stab.(mV/s)
EQDELAY	QUANT	1,00000E+001	Equil. &Time (s)
IRCOMP	SELECTOR	0	IRCom&p
PFCOR	QUANT	5,00000E+001	PF Corr. (ohm)
SAMPLINGMODE	SELECTOR	1	Sampling &Mode
EOC	QUANT	0	Open Circuit (V)
PSTATMODEL	IQUANT	48	Pstat Model
PSTATSECTION	LABEL	IFC1000-09004	Pstat Section
PSTATSERIALNO	LABEL	09004	Pstat Serial Number
CTRLMODE	IQUANT	1	Control Mode
ELECTROMETER	IQUANT	0	RE=0 or CS=1
IESTAB	IQUANT	2	I/E Stability
CASPEED	IQUANT	4	Control Amp Speed
CONVENTION	IQUANT	1	Current Convention
ICHRANGE	IQUANT	2	Ich Range
ICHRANGEMODE	TOGGLE	F	Ich Auto Range
ICHOFFSETENABLE	TOGGLE	F	Ich Offset Enable
ICHOFFSET	QUANT	0	Ich Offset (V)
ICHFILTER	IQUANT	3	Ich Filter
VCHRANGE	IQUANT	2	Vch Range
VCHRANGEMODE	TOGGLE	F	Vch Auto Range
VCHOFFSETENABLE	TOGGLE	F	Vch Offset Enable
VCHOFFSET	QUANT	0	Vch Offset (V)
VCHFILTER	IQUANT	3	Vch Filter
IERANGELOWERLIMIT	IQUANT	4	I/E Range Lower Limit
IERANGEMODE	TOGGLE	T	I/E AutoRange
IERANGE	IQUANT	5	I/E Range
ACHSELECT	IQUANT	0	Ach Select
ACHRANGE	IQUANT	2	Ach Range
ACHOFFSETENABLE	TOGGLE	F	Ach Offset Enable
ACHOFFSET	QUANT	0	Ach Offset (V)
ACHFILTER	IQUANT	1	Ach Filter
CABLEID	IQUANT	14	Cable ID
DCCALDATE	LABEL	3/18/2022	DC Calibration Date
ACCALDATE	LABEL	3/10/2016	AC Calibration Date
FRAMEWORKVERSION	QUANT	7,05	Framework Version
INSTRUMENTVERSION	LABEL	4.21	Instrument Version
CURVE1	TABLE
	Pt	T	Vf	Im	Vu	Sig	Ach	IERange	Over	Temp
	#	s	V vs. Ref.	A	V	V	V	#	bits	deg C
	0	0,1	9,98249E-002	-1,09478E-005	0,00000E+000	1,00006E-001	0,00000E+000	7	....ih..i..	-32768,00
	3	0,4	1,02785E-001	-3,06408E-005	0,00000E+000	1,02994E-001	0,00000E+000	8	...........	-32768,00
	6	0,7	1,05791E-001	-3,00374E-005	0,00000E+000	1,05994E-001	0,00000E+000	8	...........	-32768,00
	9	1	1,08785E-001	-2,96589E-005	0,00000E+000	1,08994E-001	0,00000E+000	8	...........	-32768,00
	12	1,3	1,11781E-001	-2,91940E-005	0,00000E+000	1,11995E-001	0,00000E+000	8	...........	-32768,00
	15	1,6	1,14776E-001	-2,88125E-005	0,00000E+000	1,14995E-001	0,00000E+000	8	...........	-32768,00
	18	1,9	1,17809E-001	-2,84047E-005	0,00000E+000	1,17995E-001	0,00000E+000	8	...........	-32768,00
	21	2,2	1,20801E-001	-2,80318E-005	0,00000E+000	1,20995E-001	0,00000E+000	8	...........	-32768,00
	24	2,5	1,23790E-001	-2,76578E-005	0,00000E+000	1,23996E-001	0,00000E+000	8	...........	-32768,00
	27	2,8	1,26800E-001	-2,72672E-005	0,00000E+000	1,26996E-001	0,00000E+000	8	...........	-32768,00
	30	3,1	1,29809E-001	-2,69450E-005	0,00000E+000	1,29996E-001	0,00000E+000	8	...........	-32768,00
	33	3,4	1,32809E-001	-2,65939E-005	0,00000E+000	1,32996E-001	0,00000E+000	8	...........	-32768,00
	36	3,7	1,35806E-001	-2,63206E-005	0,00000E+000	1,35997E-001	0,00000E+000	8	...........	-32768,00
	39	4	1,38795E-001	-2,60274E-005	0,00000E+000	1,38997E-001	0,00000E+000	8	...........	-32768,00
	42	4,3	1,41808E-001	-2,57846E-005	0,00000E+000	1,41997E-001	0,00000E+000	8	...........	-32768,00
	45	4,6	1,44798E-001	-2,54841E-005	0,00000E+000	1,44997E-001	0,00000E+000	8	...........	-32768,00
	48	4,9	1,47802E-001	-2,52110E-005	0,00000E+000	1,47998E-001	0,00000E+000	8	...........	-32768,00
	51	5,2	1,50777E-001	-2,49259E-005	0,00000E+000	1,50998E-001	0,00000E+000	8	...........	-32768,00
	54	5,5	1,53792E-001	-2,46270E-005	0,00000E+000	1,53998E-001	0,00000E+000	8	...........	-32768,00
	57	5,8	1,56810E-001	-2,44307E-005	0,00000E+000	1,56998E-001	0,00000E+000	8	...........	-32768,00
	60	6,1	1,59794E-001	-2,41748E-005	0,00000E+000	1,59999E-001	0,00000E+000	8	...........	-32768,00
	63	6,4	1,62801E-001	-2,39405E-005	0,00000E+000	1,62999E-001	0,00000E+000	8	...........	-32768,00
	66	6,7	1,65799E-001	-2,37171E-005	0,00000E+000	1,65999E-001	0,00000E+000	8	...........	-32768,00
	69	7	1,68825E-001	-2,34942E-005	0,00000E+000	1,68999E-001	0,00000E+000	8	...........	-32768,00
	72	7,3	1,71818E-001	-2,33340E-005	0,00000E+000	1,71999E-001	0,00000E+000	8	...........	-32768,00
	75	7,6	1,74804E-001	-2,31040E-005	0,00000E+000	1,75000E-001	0,00000E+000	8	...........	-32768,00
	78	7,9	1,77790E-001	-2,29061E-005	0,00000E+000	1,78000E-001	0,00000E+000	8	...........	-32768,00
	81	8,2	1,80827E-001	-2,26931E-005	0,00000E+000	1,81000E-001	0,00000E+000	8	...........	-32768,00
	84	8,5	1,83829E-001	-2,24998E-005	0,00000E+000	1,84000E-001	0,00000E+000	8	...........	-32768,00
	87	8,8	1,86817E-001	-2,22923E-005	0,00000E+000	1,87001E-001	0,00000E+000	8	...........	-32768,00
	90	9,1	1,89810E-001	-2,21043E-005	0,00000E+000	1,90001E-001	0,00000E+000	8	...........	-32768,00
	93	9,4	1,92820E-001	-2,19154E-005	0,00000E+000	1,93001E-001	0,00000E+000	8	...........	-32768,00
	96	9,7	1,95833E-001	-2,17324E-005	0,00000E+000	1,96001E-001	0,00000E+000	8	...........	-32768,00
	99	10	1,98809E-001	-2,15470E-005	0,00000E+000	1,99002E-001	0,00000E+000	8	...........	-32768,00
	102	10,3	2,01811E-001	-2,13618E-005	0,00000E+000	2,02002E-001	0,00000E+000	8	...........	-32768,00
	105	10,6	2,04796E-001	-2,11815E-005	0,00000E+000	2,05002E-001	0,00000E+000	8	...........	-32768,00
	108	10,9	2,07818E-001	-2,10185E-005	0,00000E+000	2,08002E-001	0,00000E+000	8	...........	-32768,00
	111	11,2	2,10812E-001	-2,08501E-005	0,00000E+000	2,11003E-001	0,00000E+000	8	...........	-32768,00
	114	11,5	2,13814E-001	-2,06839E-005	0,00000E+000	2,14003E-001	0,00000E+000	8	...........	-32768,00
	117	11,8	2,16811E-001	-2,05114E-005	0,00000E+000	2,17003E-001	0,00000E+000	8	...........	-32768,00
	120	12,1	2,19821E-001	-2,03568E-005	0,00000E+000	2,20003E-001	0,00000E+000	8	...........	-32768,00
	123	12,4	2,22818E-001	-2,01938E-005	0,00000E+000	2,23004E-001	0,00000E+000	8	...........	-32768,00
	126	12,7	2,25810E-001	-2,00467E-005	0,00000E+000	2,26004E-001	0,00000E+000	8	...........	-32768,00
	129	13	2,28813E-001	-1,98872E-005	0,00000E+000	2,29004E-001	0,00000E+000	8	...........	-32768,00
	132	13,3	2,31827E-001	-1,97280E-005	0,00000E+000	2,32004E-001	0,00000E+000	8	...........	-32768,00
	135	13,6	2,34827E-001	-1,95829E-005	0,00000E+000	2,35005E-001	0,00000E+000	8	...........	-32768,00
	138	13,9	2,37826E-001	-1,94207E-005	0,00000E+000	2,38005E-001	0,00000E+000	8	...........	-32768,00
	141	14,2	2,40822E-001	-1,92775E-005	0,00000E+000	2,41005E-001	0,00000E+000	8	...........	-32768,00
	144	14,5	2,43828E-001	-1,91258E-005	0,00000E+000	2,44005E-001	0,00000E+000	8	...........	-32768,00
	147	14,8	2,46818E-001	-1,89875E-005	0,00000E+000	2,47005E-001	0,00000E+000	8	...........	-32768,00
	150	15,1	2,49820E-001	-1,88479E-005	0,00000E+000	2,50006E-001	0,00000E+000	8	...........	-32768,00
	153	15,4	2,52825E-001	-1,86952E-005	0,00000E+000	2,53006E-001	0,00000E+000	8	...........	-32768,00
	156	15,7	2,55823E-001	-1,85465E-005	0,00000E+000	2,56006E-001	0,00000E+000	8	...........	-32768,00
	159	16	2,58823E-001	-1,84042E-005	0,00000E+000	2,58994E-001	0,00000E+000	8	...........	-32768,00
	162	16,3	2,61822E-001	-1,82600E-005	0,00000E+000	2,61994E-001	0,00000E+000	8	...........	-32768,00
	165	16,6	2,64819E-001	-1,81188E-005	0,00000E+000	2,64994E-001	0,00000E+000	8	...........	-32768,00
	168	16,9	2,67810E-001	-1,79767E-005	0,00000E+000	2,67995E-001	0,00000E+000	8	...........	-32768,00
	171	17,2	2,70830E-001	-1,78345E-005	0,00000E+000	2,70995E-001	0,00000E+000	8	...........	-32768,00
	174	17,5	2,73820E-001	-1,76901E-005	0,00000E+000	2,73995E-001	0,00000E+000	8	...........	-32768,00
	177	17,8	2,76819E-001	-1,75490E-005	0,00000E+000	2,76995E-001	0,00000E+000	8	...........	-32768,00
	180	18,1	2,79806E-001	-1,74093E-005	0,00000E+000	2,79996E-001	0,00000E+000	8	...........	-32768,00
	183	18,4	2,82841E-001	-1,72657E-005	0,00000E+000	2,82996E-001	0,00000E+000	8	...........	-32768,00
	186	18,7	2,85828E-001	-1,71203E-005	0,00000E+000	2,85996E-001	0,00000E+000	8	...........	-32768,00
	189	19	2,88820E-001	-1,69765E-005	0,00000E+000	2,88996E-001	0,00000E+000	8	...........	-32768,00
	192	19,3	2,91809E-001	-1,68330E-005	0,00000E+000	2,91997E-001	0,00000E+000	8	...........	-32768,00
	195	19,6	2,94813E-001	-1,66882E-005	0,00000E+000	2,94997E-001	0,00000E+000	8	...........	-32768,00
	198	19,9	2,97829E-001	-1,65352E-005	0,00000E+000	2,97997E-001	0,00000E+000	8	...........	-32768,00
	201	20,2	3,00821E-001	-1,63902E-005	0,00000E+000	3,00997E-001	0,00000E+000	8	...........	-32768,00
	204	20,5	3,03816E-001	-1,62369E-005	0,00000E+000	3,03998E-001	0,00000E+000	8	...........	-32768,00
	207	20,8	3,06822E-001	-1,60852E-005	0,00000E+000	3,06998E-001	0,00000E+000	8	...........	-32768,00
	210	21,1	3,09824E-001	-1,59223E-005	0,00000E+000	3,09998E-001	0,00000E+000	8	...........	-32768,00
	213	21,4	3,12839E-001	-1,57605E-005	0,00000E+000	3,12998E-001	0,00000E+000	8	...........	-32768,00
	216	21,7	3,15821E-001	-1,55998E-005	0,00000E+000	3,15998E-001	0,00000E+000	8	...........	-32768,00
	219	22	3,18828E-001	-1,54337E-005	0,00000E+000	3,18999E-001	0,00000E+000	8	...........	-32768,00
	222	22,3	3,21843E-001	-1,52463E-005	0,00000E+000	3,21999E-001	0,00000E+000	8	...........	-32768,00
	225	22,6	3,24834E-001	-1,50525E-005	0,00000E+000	3,24999E-001	0,00000E+000	8	...........	-32768,00
	228	22,9	3,27838E-001	-1,48300E-005	0,00000E+000	3,27999E-001	0,00000E+000	8	...........	-32768,00
	231	23,2	3,30840E-001	-1,46047E-005	0,00000E+000	3,31000E-001	0,00000E+000	8	...........	-32768,00
	234	23,5	3,33853E-001	-1,43492E-005	0,00000E+000	3,34000E-001	0,00000E+000	8	...........	-32768,00
	237	23,8	3,36835E-001	-1,40846E-005	0,00000E+000	3,37000E-001	0,00000E+000	8	...........	-32768,00
	240	24,1	3,39845E-001	-1,38307E-005	0,00000E+000	3,40000E-001	0,00000E+000	8	...........	-32768,00
	243	24,4	3,42841E-001	-1,35691E-005	0,00000E+000	3,43001E-001	0,00000E+000	8	...........	-32768,00
	246	24,7	3,45839E-001	-1,33187E-005	0,00000E+000	3,46001E-001	0,00000E+000	8	...........	-32768,00
	249	25	3,48843E-001	-1,30603E-005	0,00000E+000	3,49001E-001	0,00000E+000	8	...........	-32768,00
	252	25,3	3,51835E-001	-1,27988E-005	0,00000E+000	3,52001E-001	0,00000E+000	8	...........	-32768,00
	255	25,6	3,54837E-001	-1,25208E-005	0,00000E+000	3,55002E-001	0,00000E+000	8	...........	-32768,00
	258	25,9	3,57835E-001	-1,22313E-005	0,00000E+000	3,58002E-001	0,00000E+000	8	...........	-32768,00
	261	26,2	3,60854E-001	-1,19323E-005	0,00000E+000	3,61002E-001	0,00000E+000	8	...........	-32768,00
	264	26,5	3,63836E-001	-1,16090E-005	0,00000E+000	3,64002E-001	0,00000E+000	8	...........	-32768,00
	267	26,8	3,66848E-001	-1,12815E-005	0,00000E+000	3,67003E-001	0,00000E+000	8	...........	-32768,00
	270	27,1	3,69840E-001	-1,09243E-005	0,00000E+000	3,70003E-001	0,00000E+000	8	...........	-32768,00
	273	27,4	3,72865E-001	-1,05532E-005	0,00000E+000	3,73003E-001	0,00000E+000	8	...........	-32768,00
	276	27,7	3,75854E-001	-1,01514E-005	0,00000E+000	3,76003E-001	0,00000E+000	8	...........	-32768,00
	279	28	3,78856E-001	-9,70662E-006	0,00000E+000	3,79004E-001	0,00000E+000	8	...........	-32768,00
	282	28,3	3,81850E-001	-9,24536E-006	0,00000E+000	3,82004E-001	0,00000E+000	8	...........	-32768,00
	285	28,6	3,84867E-001	-8,72993E-006	0,00000E+000	3,85004E-001	0,00000E+000	8	...........	-32768,00
	288	28,9	3,87860E-001	-8,18911E-006	0,00000E+000	3,88004E-001	0,00000E+000	8	...........	-32768,00
	291	29,2	3,90860E-001	-7,61009E-006	0,00000E+000	3,91005E-001	0,00000E+000	7	...........	-32768,00
	294	29,5	3,93851E-001	-6,99552E-006	0,00000E+000	3,94005E-001	0,00000E+000	7	...........	-32768,00
	297	29,8	3,96866E-001	-6,35061E-006	0,00000E+000	3,97005E-001	0,00000E+000	7	...........	-32768,00
	300	30,1	3,99864E-001	-5,65574E-006	0,00000E+000	4,00005E-001	0,00000E+000	7	...........	-32768,00
	303	30,4	4,02864E-001	-4,92705E-006	0,00000E+000	4,03005E-001	0,00000E+000	7	...........	-32768,00
	306	30,7	4,05852E-001	-4,15674E-006	0,00000E+000	4,06006E-001	0,00000E+000	7	...........	-32768,00
	309	31	4,08853E-001	-3,36207E-006	0,00000E+000	4,09006E-001	0,00000E+000	7	...........	-32768,00
	312	31,3	4,11857E-001	-2,50929E-006	0,00000E+000	4,12006E-001	0,00000E+000	7	...........	-32768,00
	315	31,6	4,14837E-001	-1,63754E-006	0,00000E+000	4,14994E-001	0,00000E+000	7	...........	-32768,00
	318	31,9	4,17831E-001	-7,03500E-007	0,00000E+000	4,17994E-001	0,00000E+000	7	...........	-32768,00
	321	32,2	4,20835E-001	2,39338E-007	0,00000E+000	4,20994E-001	0,00000E+000	7	...........	-32768,00
	324	32,5	4,23850E-001	1,23515E-006	0,00000E+000	4,23995E-001	0,00000E+000	7	...........	-32768,00
	327	32,8	4,26844E-001	2,24216E-006	0,00000E+000	4,26995E-001	0,00000E+000	7	...........	-32768,00
	330	33,1	4,29851E-001	3,27635E-006	0,00000E+000	4,29995E-001	0,00000E+000	7	...........	-32768,00
	333	33,4	4,32839E-001	4,30210E-006	0,00000E+000	4,32995E-001	0,00000E+000	7	...........	-32768,00
	336	33,7	4,35840E-001	5,34764E-006	0,00000E+000	4,35996E-001	0,00000E+000	7	...........	-32768,00
	339	34	4,38840E-001	6,39874E-006	0,00000E+000	4,38996E-001	0,00000E+000	7	...........	-32768,00
	342	34,3	4,41844E-001	7,45124E-006	0,00000E+000	4,41996E-001	0,00000E+000	7	...........	-32768,00
	345	34,6	4,44832E-001	8,52238E-006	0,00000E+000	4,44996E-001	0,00000E+000	7	...........	-32768,00
	348	34,9	4,47844E-001	9,61215E-006	0,00000E+000	4,47997E-001	0,00000E+000	8	...........	-32768,00
	351	35,2	4,50853E-001	1,07150E-005	0,00000E+000	4,50997E-001	0,00000E+000	8	...........	-32768,00
	354	35,5	4,53845E-001	1,18955E-005	0,00000E+000	4,53997E-001	0,00000E+000	8	...........	-32768,00
	357	35,8	4,56842E-001	1,31202E-005	0,00000E+000	4,56997E-001	0,00000E+000	8	...........	-32768,00
	360	36,1	4,59844E-001	1,44644E-005	0,00000E+000	4,59998E-001	0,00000E+000	8	...........	-32768,00
	363	36,4	4,62856E-001	1,58888E-005	0,00000E+000	4,62998E-001	0,00000E+000	8	...........	-32768,00
	366	36,7	4,65850E-001	1,74543E-005	0,00000E+000	4,65998E-001	0,00000E+000	8	...........	-32768,00
	369	37	4,68850E-001	1,91648E-005	0,00000E+000	4,68998E-001	0,00000E+000	8	...........	-32768,00
	372	37,3	4,71846E-001	2,10351E-005	0,00000E+000	4,71999E-001	0,00000E+000	8	...........	-32768,00
	375	37,6	4,74874E-001	2,30604E-005	0,00000E+000	4,74999E-001	0,00000E+000	8	...........	-32768,00
	378	37,9	4,77868E-001	2,52906E-005	0,00000E+000	4,77999E-001	0,00000E+000	8	...........	-32768,00
	381	38,2	4,80856E-001	2,76979E-005	0,00000E+000	4,80999E-001	0,00000E+000	8	...........	-32768,00
	384	38,5	4,83853E-001	3,02936E-005	0,00000E+000	4,83999E-001	0,00000E+000	8	...........	-32768,00
	387	38,8	4,86859E-001	3,31346E-005	0,00000E+000	4,87000E-001	0,00000E+000	8	...........	-32768,00
	390	39,1	4,89859E-001	3,61701E-005	0,00000E+000	4,90000E-001	0,00000E+000	8	...........	-32768,00
	393	39,4	4,92861E-001	3,94386E-005	0,00000E+000	4,93000E-001	0,00000E+000	8	...........	-32768,00
	396	39,7	4,95851E-001	4,28668E-005	0,00000E+000	4,96000E-001	0,00000E+000	8	...........	-32768,00
	399	40	4,98850E-001	4,66187E-005	0,00000E+000	4,99001E-001	0,00000E+000	8	...........	-32768,00
	402	40,3	5,01865E-001	5,04961E-005	0,00000E+000	5,02001E-001	0,00000E+000	8	...........	-32768,00
	405	40,6	5,04865E-001	5,46089E-005	0,00000E+000	5,05001E-001	0,00000E+000	8	...........	-32768,00
	408	40,9	5,07864E-001	5,89331E-005	0,00000E+000	5,08001E-001	0,00000E+000	8	...........	-32768,00
	411	41,2	5,10854E-001	6,34083E-005	0,00000E+000	5,11002E-001	0,00000E+000	8	...........	-32768,00
	414	41,5	5,13875E-001	6,80420E-005	0,00000E+000	5,14002E-001	0,00000E+000	8	...........	-32768,00
	417	41,8	5,16874E-001	7,29837E-005	0,00000E+000	5,17002E-001	0,00000E+000	8	...........	-32768,00
	420	42,1	5,19881E-001	7,80606E-005	0,00000E+000	5,20002E-001	0,00000E+000	8	...........	-32768,00
	423	42,4	5,22873E-001	8,32323E-005	0,00000E+000	5,23003E-001	0,00000E+000	8	...........	-32768,00
	426	42,7	5,25877E-001	8,86286E-005	0,00000E+000	5,26003E-001	0,00000E+000	8	...........	-32768,00
	429	43	5,28880E-001	9,42433E-005	0,00000E+000	5,29003E-001	0,00000E+000	9	...........	-32768,00
	432	43,3	5,31885E-001	9,99903E-005	0,00000E+000	5,32003E-001	0,00000E+000	9	...........	-32768,00
	435	43,6	5,34885E-001	1,05922E-004	0,00000E+000	5,35004E-001	0,00000E+000	9	...........	-32768,00
	438	43,9	5,37880E-001	1,12000E-004	0,00000E+000	5,38004E-001	0,00000E+000	9	...........	-32768,00
	441	44,2	5,40885E-001	1,18257E-004	0,00000E+000	5,41004E-001	0,00000E+000	9	...........	-32768,00
	444	44,5	5,43881E-001	1,24646E-004	0,00000E+000	5,44004E-001	0,00000E+000	9	...........	-32768,00
	447	44,8	5,46883E-001	1,31133E-004	0,00000E+000	5,47005E-001	0,00000E+000	9	...........	-32768,00
	450	45,1	5,49884E-001	1,37445E-004	0,00000E+000	5,50005E-001	0,00000E+000	9	...........	-32768,00
	453	45,4	5,52892E-001	1,43521E-004	0,00000E+000	5,53005E-001	0,00000E+000	9	...........	-32768,00
	456	45,7	5,55879E-001	1,49237E-004	0,00000E+000	5,56005E-001	0,00000E+000	9	...........	-32768,00
	459	46	5,58870E-001	1,53972E-004	0,00000E+000	5,59005E-001	0,00000E+000	9	...........	-32768,00
	462	46,3	5,61882E-001	1,57127E-004	0,00000E+000	5,62006E-001	0,00000E+000	9	...........	-32768,00
	465	46,6	5,64908E-001	1,58152E-004	0,00000E+000	5,65006E-001	0,00000E+000	9	...........	-32768,00
	468	46,9	5,67901E-001	1,55695E-004	0,00000E+000	5,68006E-001	0,00000E+000	9	...........	-32768,00
	471	47,2	5,70878E-001	1,49251E-004	0,00000E+000	5,70994E-001	0,00000E+000	9	...........	-32768,00
	474	47,5	5,73880E-001	1,37610E-004	0,00000E+000	5,73994E-001	0,00000E+000	9	...........	-32768,00
	477	47,8	5,76865E-001	1,20506E-004	0,00000E+000	5,76994E-001	0,00000E+000	9	...........	-32768,00
	480	48,1	5,79896E-001	9,91319E-005	0,00000E+000	5,79995E-001	0,00000E+000	9	...........	-32768,00
	483	48,4	5,82885E-001	7,72538E-005	0,00000E+000	5,82995E-001	0,00000E+000	9	...........	-32768,00
	486	48,7	5,85879E-001	6,00627E-005	0,00000E+000	5,85995E-001	0,00000E+000	8	...........	-32768,00
	489	49	5,88880E-001	5,11132E-005	0,00000E+000	5,88995E-001	0,00000E+000	8	...........	-32768,00
	492	49,3	5,91895E-001	4,71775E-005	0,00000E+000	5,91996E-001	0,00000E+000	8	...........	-32768,00
	495	49,6	5,94895E-001	4,47684E-005	0,00000E+000	5,94996E-001	0,00000E+000	8	...........	-32768,00
	498	49,9	5,97887E-001	4,29728E-005	0,00000E+000	5,97996E-001	0,00000E+000	8	...........	-32768,00
	501	50,2	6,00886E-001	4,15345E-005	0,00000E+000	6,00996E-001	0,00000E+000	8	...........	-32768,00
	504	50,5	6,03904E-001	4,03964E-005	0,00000E+000	6,03997E-001	0,00000E+000	8	...........	-32768,00
	507	50,8	6,06899E-001	3,94276E-005	0,00000E+000	6,06997E-001	0,00000E+000	8	...........	-32768,00
	510	51,1	6,09887E-001	3,86238E-005	0,00000E+000	6,09997E-001	0,00000E+000	8	...........	-32768,00
	513	51,4	6,12894E-001	3,79467E-005	0,00000E+000	6,12997E-001	0,00000E+000	8	...........	-32768,00
	516	51,7	6,15920E-001	3,73650E-005	0,00000E+000	6,15998E-001	0,00000E+000	8	...........	-32768,00
	519	52	6,18900E-001	3,68249E-005	0,00000E+000	6,18998E-001	0,00000E+000	8	...........	-32768,00
	522	52,3	6,21896E-001	3,63822E-005	0,00000E+000	6,21998E-001	0,00000E+000	8	...........	-32768,00
	525	52,6	6,24889E-001	3,59835E-005	0,00000E+000	6,24998E-001	0,00000E+000	8	...........	-32768,00
	528	52,9	6,27897E-001	3,56256E-005	0,00000E+000	6,27999E-001	0,00000E+000	8	...........	-32768,00
	531	53,2	6,30909E-001	3,52979E-005	0,00000E+000	6,30999E-001	0,00000E+000	8	...........	-32768,00
	534	53,5	6,33910E-001	3,50307E-005	0,00000E+000	6,33999E-001	0,00000E+000	8	...........	-32768,00
	537	53,8	6,36915E-001	3,47912E-005	0,00000E+000	6,36999E-001	0,00000E+000	8	...........	-32768,00
	540	54,1	6,39894E-001	3,45696E-005	0,00000E+000	6,40000E-001	0,00000E+000	8	...........	-32768,00
	543	54,4	6,42911E-001	3,43843E-005	0,00000E+000	6,43000E-001	0,00000E+000	8	...........	-32768,00
	546	54,7	6,45905E-001	3,42095E-005	0,00000E+000	6,46000E-001	0,00000E+000	8	...........	-32768,00
	549	55	6,48908E-001	3,40525E-005	0,00000E+000	6,49000E-001	0,00000E+000	8	...........	-32768,00
	552	55,3	6,51904E-001	3,39103E-005	0,00000E+000	6,52000E-001	0,00000E+000	8	...........	-32768,00
	555	55,6	6,54912E-001	3,37964E-005	0,00000E+000	6,55001E-001	0,00000E+000	8	...........	-32768,00
	558	55,9	6,57913E-001	3,36853E-005	0,00000E+000	6,58001E-001	0,00000E+000	8	...........	-32768,00
	561	56,2	6,60918E-001	3,35943E-005	0,00000E+000	6,61001E-001	0,00000E+000	8	...........	-32768,00
	564	56,5	6,63903E-001	3,35059E-005	0,00000E+000	6,64001E-001	0,00000E+000	8	...........	-32768,00
	567	56,8	6,66928E-001	3,34278E-005	0,00000E+000	6,67002E-001	0,00000E+000	8	...........	-32768,00
	570	57,1	6,69920E-001	3,33827E-005	0,00000E+000	6,70002E-001	0,00000E+000	8	...........	-32768,00
	573	57,4	6,72918E-001	3,33342E-005	0,00000E+000	6,73002E-001	0,00000E+000	8	...........	-32768,00
	576	57,7	6,75915E-001	3,33078E-005	0,00000E+000	6,76002E-001	0,00000E+000	8	...........	-32768,00
	579	58	6,78911E-001	3,32639E-005	0,00000E+000	6,79003E-001	0,00000E+000	8	...........	-32768,00
	582	58,3	6,81928E-001	3,32247E-005	0,00000E+000	6,82003E-001	0,00000E+000	8	...........	-32768,00
	585	58,6	6,84933E-001	3,32227E-005	0,00000E+000	6,85003E-001	0,00000E+000	8	...........	-32768,00
	588	58,9	6,87922E-001	3,31975E-005	0,00000E+000	6,88003E-001	0,00000E+000	8	...........	-32768,00
	591	59,2	6,90935E-001	3,31673E-005	0,00000E+000	6,91004E-001	0,00000E+000	8	...........	-32768,00
	594	59,5	6,93946E-001	3,31679E-005	0,00000E+000	6,94004E-001	0,00000E+000	8	...........	-32768,00
	597	59,8	6,96935E-001	3,31629E-005	0,00000E+000	6,97004E-001	0,00000E+000	8	...........	-32768,00
	600	60,1	6,99933E-001	3,31669E-005	0,00000E+000	7,00004E-001	0,00000E+000	8	...........	-32768,00
	603	60,4	7,02924E-001	3,31796E-005	0,00000E+000	7,03005E-001	0,00000E+000	8	...........	-32768,00
	606	60,7	7,05938E-001	3,31749E-005	0,00000E+000	7,06005E-001	0,00000E+000	8	...........	-32768,00
	609	61	7,08939E-001	3,31855E-005	0,00000E+000	7,09005E-001	0,00000E+000	8	...........	-32768,00
	612	61,3	7,11935E-001	3,32089E-005	0,00000E+000	7,12005E-001	0,00000E+000	8	...........	-32768,00
	615	61,6	7,14930E-001	3,32349E-005	0,00000E+000	7,15006E-001	0,00000E+000	8	...........	-32768,00
	618	61,9	7,17939E-001	3,32619E-005	0,00000E+000	7,18006E-001	0,00000E+000	8	...........	-32768,00
	621	62,2	7,20950E-001	3,32686E-005	0,00000E+000	7,21006E-001	0,00000E+000	8	...........	-32768,00
	624	62,5	7,23946E-001	3,32803E-005	0,00000E+000	7,24006E-001	0,00000E+000	8	...........	-32768,00
	627	62,8	7,26916E-001	3,33140E-005	0,00000E+000	7,26994E-001	0,00000E+000	8	...........	-32768,00
	630	63,1	7,29923E-001	3,33142E-005	0,00000E+000	7,29994E-001	0,00000E+000	8	...........	-32768,00
	633	63,4	7,32934E-001	3,33898E-005	0,00000E+000	7,32994E-001	0,00000E+000	8	...........	-32768,00
	636	63,7	7,35935E-001	3,33827E-005	0,00000E+000	7,35995E-001	0,00000E+000	8	...........	-32768,00
	639	64	7,38935E-001	3,33944E-005	0,00000E+000	7,38995E-001	0,00000E+000	8	...........	-32768,00
	642	64,3	7,41924E-001	3,34395E-005	0,00000E+000	7,41995E-001	0,00000E+000	8	...........	-32768,00
	645	64,6	7,44933E-001	3,34799E-005	0,00000E+000	7,44995E-001	0,00000E+000	8	...........	-32768,00
	648	64,9	7,47951E-001	3,35063E-005	0,00000E+000	7,47996E-001	0,00000E+000	8	...........	-32768,00
	651	65,2	7,50952E-001	3,35415E-005	0,00000E+000	7,50996E-001	0,00000E+000	8	...........	-32768,00
	654	65,5	7,53949E-001	3,35557E-005	0,00000E+000	7,53996E-001	0,00000E+000	8	...........	-32768,00
	657	65,8	7,56961E-001	3,35883E-005	0,00000E+000	7,56996E-001	0,00000E+000	8	...........	-32768,00
	660	66,1	7,59944E-001	3,36606E-005	0,00000E+000	7,59997E-001	0,00000E+000	8	...........	-32768,00
	663	66,4	7,62951E-001	3,36604E-005	0,00000E+000	7,62997E-001	0,00000E+000	8	...........	-32768,00
	666	66,7	7,65949E-001	3,36878E-005	0,00000E+000	7,65997E-001	0,00000E+000	8	...........	-32768,00
	669	67	7,68931E-001	3,37073E-005	0,00000E+000	7,68997E-001	0,00000E+000	8	...........	-32768,00
	672	67,3	7,71950E-001	3,37579E-005	0,00000E+000	7,71998E-001	0,00000E+000	8	...........	-32768,00
	675	67,6	7,74957E-001	3,37817E-005	0,00000E+000	7,74998E-001	0,00000E+000	8	...........	-32768,00
	678	67,9	7,77944E-001	3,38303E-005	0,00000E+000	7,77998E-001	0,00000E+000	8	...........	-32768,00
	681	68,2	7,80955E-001	3,38452E-005	0,00000E+000	7,80998E-001	0,00000E+000	8	...........	-32768,00
	684	68,5	7,83969E-001	3,38691E-005	0,00000E+000	7,83999E-001	0,00000E+000	8	...........	-32768,00
	687	68,8	7,86963E-001	3,39133E-005	0,00000E+000	7,86999E-001	0,00000E+000	8	...........	-32768,00
	690	69,1	7,89957E-001	3,39529E-005	0,00000E+000	7,89999E-001	0,00000E+000	8	...........	-32768,00
	693	69,4	7,92952E-001	3,39871E-005	0,00000E+000	7,92999E-001	0,00000E+000	8	...........	-32768,00
	696	69,7	7,95966E-001	3,39996E-005	0,00000E+000	7,96000E-001	0,00000E+000	8	...........	-32768,00
	699	70	7,98970E-001	3,40744E-005	0,00000E+000	7,99000E-001	0,00000E+000	8	...........	-32768,00
	702	70,3	7,97981E-001	3,35687E-005	0,00000E+000	7,98000E-001	0,00000E+000	8	...........	-32768,00
	705	70,6	7,94983E-001	3,29050E-005	0,00000E+000	7,94999E-001	0,00000E+000	8	...........	-32768,00
	708	70,9	7,91961E-001	3,22604E-005	0,00000E+000	7,91999E-001	0,00000E+000	8	...........	-32768,00
	711	71,2	7,88961E-001	3,16625E-005	0,00000E+000	7,88999E-001	0,00000E+000	8	...........	-32768,00
	714	71,5	7,85964E-001	3,10841E-005	0,00000E+000	7,85999E-001	0,00000E+000	8	...........	-32768,00
	717	71,8	7,82967E-001	3,05303E-005	0,00000E+000	7,82998E-001	0,00000E+000	8	...........	-32768,00
	720	72,1	7,79955E-001	2,99756E-005	0,00000E+000	7,79998E-001	0,00000E+000	8	...........	-32768,00
	723	72,4	7,76943E-001	2,94825E-005	0,00000E+000	7,76998E-001	0,00000E+000	8	...........	-32768,00
	726	72,7	7,73960E-001	2,89945E-005	0,00000E+000	7,73998E-001	0,00000E+000	8	...........	-32768,00
	729	73	7,70965E-001	2,84885E-005	0,00000E+000	7,70998E-001	0,00000E+000	8	...........	-32768,00
	732	73,3	7,67931E-001	2,80531E-005	0,00000E+000	7,67997E-001	0,00000E+000	8	...........	-32768,00
	735	73,6	7,64932E-001	2,76011E-005	0,00000E+000	7,64997E-001	0,00000E+000	8	...........	-32768,00
	738	73,9	7,61935E-001	2,71615E-005	0,00000E+000	7,61997E-001	0,00000E+000	8	...........	-32768,00
	741	74,2	7,58936E-001	2,67492E-005	0,00000E+000	7,58997E-001	0,00000E+000	8	...........	-32768,00
	744	74,5	7,55952E-001	2,63430E-005	0,00000E+000	7,55996E-001	0,00000E+000	8	...........	-32768,00
	747	74,8	7,52938E-001	2,59494E-005	0,00000E+000	7,52996E-001	0,00000E+000	8	...........	-32768,00
	750	75,1	7,49937E-001	2,55505E-005	0,00000E+000	7,49996E-001	0,00000E+000	8	...........	-32768,00
	753	75,4	7,46962E-001	2,51748E-005	0,00000E+000	7,46996E-001	0,00000E+000	8	...........	-32768,00
	756	75,7	7,43952E-001	2,48183E-005	0,00000E+000	7,43995E-001	0,00000E+000	8	...........	-32768,00
	759	76	7,40933E-001	2,44570E-005	0,00000E+000	7,40995E-001	0,00000E+000	8	...........	-32768,00
	762	76,3	7,37935E-001	2,41219E-005	0,00000E+000	7,37995E-001	0,00000E+000	8	...........	-32768,00
	765	76,6	7,34935E-001	2,37785E-005	0,00000E+000	7,34995E-001	0,00000E+000	8	...........	-32768,00
	768	76,9	7,31938E-001	2,34579E-005	0,00000E+000	7,31994E-001	0,00000E+000	8	...........	-32768,00
	771	77,2	7,28923E-001	2,31182E-005	0,00000E+000	7,28994E-001	0,00000E+000	8	...........	-32768,00
	774	77,5	7,25937E-001	2,28031E-005	0,00000E+000	7,25994E-001	0,00000E+000	8	...........	-32768,00
	777	77,8	7,22948E-001	2,24969E-005	0,00000E+000	7,23006E-001	0,00000E+000	8	...........	-32768,00
	780	78,1	7,19953E-001	2,21962E-005	0,00000E+000	7,20006E-001	0,00000E+000	8	...........	-32768,00
	783	78,4	7,16921E-001	2,18988E-005	0,00000E+000	7,17006E-001	0,00000E+000	8	...........	-32768,00
	786	78,7	7,13936E-001	2,16048E-005	0,00000E+000	7,14005E-001	0,00000E+000	8	...........	-32768,00
	789	79	7,10934E-001	2,13296E-005	0,00000E+000	7,11005E-001	0,00000E+000	8	...........	-32768,00
	792	79,3	7,07934E-001	2,10536E-005	0,00000E+000	7,08005E-001	0,00000E+000	8	...........	-32768,00
	795	79,6	7,04918E-001	2,07751E-005	0,00000E+000	7,05005E-001	0,00000E+000	8	...........	-32768,00
	798	79,9	7,01925E-001	2,05075E-005	0,00000E+000	7,02004E-001	0,00000E+000	8	...........	-32768,00
	801	80,2	6,98931E-001	2,02437E-005	0,00000E+000	6,99004E-001	0,00000E+000	8	...........	-32768,00
	804	80,5	6,95922E-001	1,99867E-005	0,00000E+000	6,96004E-001	0,00000E+000	8	...........	-32768,00
	807	80,8	6,92938E-001	1,97383E-005	0,00000E+000	6,93004E-001	0,00000E+000	8	...........	-32768,00
	810	81,1	6,89927E-001	1,94832E-005	0,00000E+000	6,90004E-001	0,00000E+000	8	...........	-32768,00
	813	81,4	6,86917E-001	1,92385E-005	0,00000E+000	6,87003E-001	0,00000E+000	8	...........	-32768,00
	816	81,7	6,83937E-001	1,89912E-005	0,00000E+000	6,84003E-001	0,00000E+000	8	...........	-32768,00
	819	82	6,80934E-001	1,87544E-005	0,00000E+000	6,81003E-001	0,00000E+000	8	...........	-32768,00
	822	82,3	6,77909E-001	1,85231E-005	0,00000E+000	6,78003E-001	0,00000E+000	8	...........	-32768,00
	825	82,6	6,74910E-001	1,82900E-005	0,00000E+000	6,75002E-001	0,00000E+000	8	...........	-32768,00
	828	82,9	6,71920E-001	1,80649E-005	0,00000E+000	6,72002E-001	0,00000E+000	8	...........	-32768,00
	831	83,2	6,68920E-001	1,78402E-005	0,00000E+000	6,69002E-001	0,00000E+000	8	...........	-32768,00
	834	83,5	6,65913E-001	1,76214E-005	0,00000E+000	6,66002E-001	0,00000E+000	8	...........	-32768,00
	837	83,8	6,62908E-001	1,74009E-005	0,00000E+000	6,63001E-001	0,00000E+000	8	...........	-32768,00
	840	84,1	6,59898E-001	1,73857E-005	0,00000E+000	6,60001E-001	0,00000E+000	8	...........	-32768,00
	843	84,4	6,56921E-001	1,72140E-005	0,00000E+000	6,57001E-001	0,00000E+000	8	...........	-32768,00
	846	84,7	6,53913E-001	1,70657E-005	0,00000E+000	6,54001E-001	0,00000E+000	8	...........	-32768,00
	849	85	6,50909E-001	1,67607E-005	0,00000E+000	6,51000E-001	0,00000E+000	8	...........	-32768,00
	852	85,3	6,47919E-001	1,64866E-005	0,00000E+000	6,48000E-001	0,00000E+000	8	...........	-32768,00
	855	85,6	6,44913E-001	1,63126E-005	0,00000E+000	6,45000E-001	0,00000E+000	8	...........	-32768,00
	858	85,9	6,41922E-001	1,61820E-005	0,00000E+000	6,42000E-001	0,00000E+000	8	...........	-32768,00
	861	86,2	6,38910E-001	1,61518E-005	0,00000E+000	6,38999E-001	0,00000E+000	8	...........	-32768,00
	864	86,5	6,35918E-001	1,56677E-005	0,00000E+000	6,35999E-001	0,00000E+000	8	...........	-32768,00
	867	86,8	6,32910E-001	1,55838E-005	0,00000E+000	6,32999E-001	0,00000E+000	8	...........	-32768,00
	870	87,1	6,29907E-001	1,53322E-005	0,00000E+000	6,29999E-001	0,00000E+000	8	...........	-32768,00
	873	87,4	6,26886E-001	1,51076E-005	0,00000E+000	6,26998E-001	0,00000E+000	8	...........	-32768,00
	876	87,7	6,23889E-001	1,49113E-005	0,00000E+000	6,23998E-001	0,00000E+000	8	...........	-32768,00
	879	88	6,20896E-001	1,47031E-005	0,00000E+000	6,20998E-001	0,00000E+000	8	...........	-32768,00
	882	88,3	6,17898E-001	1,45491E-005	0,00000E+000	6,17998E-001	0,00000E+000	8	...........	-32768,00
	885	88,6	6,14893E-001	1,43767E-005	0,00000E+000	6,14998E-001	0,00000E+000	8	...........	-32768,00
	888	88,9	6,11888E-001	1,41878E-005	0,00000E+000	6,11997E-001	0,00000E+000	8	...........	-32768,00
	891	89,2	6,08890E-001	1,40900E-005	0,00000E+000	6,08997E-001	0,00000E+000	8	...........	-32768,00
	894	89,5	6,05900E-001	1,38592E-005	0,00000E+000	6,05997E-001	0,00000E+000	8	...........	-32768,00
	897	89,8	6,02919E-001	1,36627E-005	0,00000E+000	6,02997E-001	0,00000E+000	8	...........	-32768,00
	900	90,1	5,99881E-001	1,34564E-005	0,00000E+000	5,99996E-001	0,00000E+000	8	...........	-32768,00
	903	90,4	5,96893E-001	1,32090E-005	0,00000E+000	5,96996E-001	0,00000E+000	8	...........	-32768,00
	906	90,7	5,93892E-001	1,29900E-005	0,00000E+000	5,93996E-001	0,00000E+000	8	...........	-32768,00
	909	91	5,90896E-001	1,28029E-005	0,00000E+000	5,90996E-001	0,00000E+000	8	...........	-32768,00
	912	91,3	5,87877E-001	1,26309E-005	0,00000E+000	5,87995E-001	0,00000E+000	8	...........	-32768,00
	915	91,6	5,84884E-001	1,24613E-005	0,00000E+000	5,84995E-001	0,00000E+000	8	...........	-32768,00
	918	91,9	5,81888E-001	1,22911E-005	0,00000E+000	5,81995E-001	0,00000E+000	8	...........	-32768,00
	921	92,2	5,78890E-001	1,21210E-005	0,00000E+000	5,78995E-001	0,00000E+000	8	...........	-32768,00
	924	92,5	5,75854E-001	1,19447E-005	0,00000E+000	5,75994E-001	0,00000E+000	8	...........	-32768,00
	927	92,8	5,72865E-001	1,17731E-005	0,00000E+000	5,72994E-001	0,00000E+000	8	...........	-32768,00
	930	93,1	5,69877E-001	1,16027E-005	0,00000E+000	5,69994E-001	0,00000E+000	8	...........	-32768,00
	933	93,4	5,66900E-001	1,14339E-005	0,00000E+000	5,67006E-001	0,00000E+000	8	...........	-32768,00
	936	93,7	5,63885E-001	1,12580E-005	0,00000E+000	5,64006E-001	0,00000E+000	8	...........	-32768,00
	939	94	5,60875E-001	1,10886E-005	0,00000E+000	5,61006E-001	0,00000E+000	8	...........	-32768,00
	942	94,3	5,57885E-001	1,09193E-005	0,00000E+000	5,58005E-001	0,00000E+000	8	...........	-32768,00
	945	94,6	5,54888E-001	1,07520E-005	0,00000E+000	5,55005E-001	0,00000E+000	8	...........	-32768,00
	948	94,9	5,51912E-001	1,05831E-005	0,00000E+000	5,52005E-001	0,00000E+000	8	...........	-32768,00
	951	95,2	5,48872E-001	1,04148E-005	0,00000E+000	5,49005E-001	0,00000E+000	8	...........	-32768,00
	954	95,5	5,45885E-001	1,02493E-005	0,00000E+000	5,46004E-001	0,00000E+000	8	...........	-32768,00
	957	95,8	5,42886E-001	1,00819E-005	0,00000E+000	5,43004E-001	0,00000E+000	8	...........	-32768,00
	960	96,1	5,39894E-001	9,91894E-006	0,00000E+000	5,40004E-001	0,00000E+000	8	...........	-32768,00
	963	96,4	5,36878E-001	9,75404E-006	0,00000E+000	5,37004E-001	0,00000E+000	8	...........	-32768,00
	966	96,7	5,33886E-001	9,59247E-006	0,00000E+000	5,34003E-001	0,00000E+000	8	...........	-32768,00
	969	97	5,30885E-001	9,43714E-006	0,00000E+000	5,31003E-001	0,00000E+000	8	...........	-32768,00
	972	97,3	5,27885E-001	9,28311E-006	0,00000E+000	5,28003E-001	0,00000E+000	8	...........	-32768,00
	975	97,6	5,24862E-001	9,13192E-006	0,00000E+000	5,25003E-001	0,00000E+000	8	...........	-32768,00
	978	97,9	5,21865E-001	8,98608E-006	0,00000E+000	5,22003E-001	0,00000E+000	8	...........	-32768,00
	981	98,2	5,18875E-001	8,84275E-006	0,00000E+000	5,19002E-001	0,00000E+000	8	...........	-32768,00
	984	98,5	5,15885E-001	8,70181E-006	0,00000E+000	5,16002E-001	0,00000E+000	8	...........	-32768,00
	987	98,8	5,12882E-001	8,56316E-006	0,00000E+000	5,13002E-001	0,00000E+000	8	...........	-32768,00
	990	99,1	5,09858E-001	8,42774E-006	0,00000E+000	5,10002E-001	0,00000E+000	8	...........	-32768,00
	993	99,4	5,06869E-001	8,29197E-006	0,00000E+000	5,07001E-001	0,00000E+000	8	...........	-32768,00
	996	99,7	5,03873E-001	8,15767E-006	0,00000E+000	5,04001E-001	0,00000E+000	8	...........	-32768,00
	999	100	5,00870E-001	8,02303E-006	0,00000E+000	5,01001E-001	0,00000E+000	7	...........	-32768,00
	1002	100,3	4,97848E-001	7,88978E-006	0,00000E+000	4,98001E-001	0,00000E+000	7	...........	-32768,00
	1005	100,6	4,94849E-001	7,75559E-006	0,00000E+000	4,95000E-001	0,00000E+000	7	...........	-32768,00
	1008	100,9	4,91862E-001	7,62140E-006	0,00000E+000	4,92000E-001	0,00000E+000	7	...........	-32768,00
	1011	101,2	4,88866E-001	7,48468E-006	0,00000E+000	4,89000E-001	0,00000E+000	7	...........	-32768,00
	1014	101,5	4,85834E-001	7,34637E-006	0,00000E+000	4,86000E-001	0,00000E+000	7	...........	-32768,00
	1017	101,8	4,82840E-001	7,20523E-006	0,00000E+000	4,82999E-001	0,00000E+000	7	...........	-32768,00
	1020	102,1	4,79856E-001	7,06202E-006	0,00000E+000	4,79999E-001	0,00000E+000	7	...........	-32768,00
	1023	102,4	4,76856E-001	6,91572E-006	0,00000E+000	4,76999E-001	0,00000E+000	7	...........	-32768,00
	1026	102,7	4,73845E-001	6,76368E-006	0,00000E+000	4,73999E-001	0,00000E+000	7	...........	-32768,00
	1029	103	4,70849E-001	6,60792E-006	0,00000E+000	4,70998E-001	0,00000E+000	7	...........	-32768,00
	1032	103,3	4,67845E-001	6,45506E-006	0,00000E+000	4,67998E-001	0,00000E+000	7	...........	-32768,00
	1035	103,6	4,64850E-001	6,29212E-006	0,00000E+000	4,64998E-001	0,00000E+000	7	...........	-32768,00
	1038	103,9	4,61857E-001	6,11694E-006	0,00000E+000	4,61998E-001	0,00000E+000	7	...........	-32768,00
	1041	104,2	4,58836E-001	5,91036E-006	0,00000E+000	4,58997E-001	0,00000E+000	7	...........	-32768,00
	1044	104,5	4,55846E-001	5,60632E-006	0,00000E+000	4,55997E-001	0,00000E+000	7	...........	-32768,00
	1047	104,8	4,52844E-001	5,08712E-006	0,00000E+000	4,52997E-001	0,00000E+000	7	...........	-32768,00
	1050	105,1	4,49858E-001	4,14208E-006	0,00000E+000	4,49997E-001	0,00000E+000	7	...........	-32768,00
	1053	105,4	4,46842E-001	2,53363E-006	0,00000E+000	4,46997E-001	0,00000E+000	7	...........	-32768,00
	1056	105,7	4,43844E-001	-6,88969E-008	0,00000E+000	4,43996E-001	0,00000E+000	7	...........	-32768,00
	1059	106	4,40857E-001	-3,87158E-006	0,00000E+000	4,40996E-001	0,00000E+000	7	...........	-32768,00
	1062	106,3	4,37875E-001	-8,95634E-006	0,00000E+000	4,37996E-001	0,00000E+000	7	...........	-32768,00
	1065	106,6	4,34842E-001	-1,51834E-005	0,00000E+000	4,34996E-001	0,00000E+000	8	...........	-32768,00
	1068	106,9	4,31839E-001	-2,22869E-005	0,00000E+000	4,31995E-001	0,00000E+000	8	...........	-32768,00
	1071	107,2	4,28849E-001	-2,99508E-005	0,00000E+000	4,28995E-001	0,00000E+000	8	...........	-32768,00
	1074	107,5	4,25850E-001	-3,77227E-005	0,00000E+000	4,25995E-001	0,00000E+000	8	...........	-32768,00
	1077	107,8	4,22847E-001	-4,52254E-005	0,00000E+000	4,22995E-001	0,00000E+000	8	...........	-32768,00
	1080	108,1	4,19841E-001	-5,21534E-005	0,00000E+000	4,19994E-001	0,00000E+000	8	...........	-32768,00
	1083	108,4	4,16847E-001	-5,83307E-005	0,00000E+000	4,16994E-001	0,00000E+000	8	...........	-32768,00
	1086	108,7	4,13844E-001	-6,36855E-005	0,00000E+000	4,13994E-001	0,00000E+000	8	...........	-32768,00
	1089	109	4,10867E-001	-6,81045E-005	0,00000E+000	4,11006E-001	0,00000E+000	8	...........	-32768,00
	1092	109,3	4,07858E-001	-7,17001E-005	0,00000E+000	4,08006E-001	0,00000E+000	8	...........	-32768,00
	1095	109,6	4,04856E-001	-7,44793E-005	0,00000E+000	4,05006E-001	0,00000E+000	8	...........	-32768,00
	1098	109,9	4,01871E-001	-7,65731E-005	0,00000E+000	4,02005E-001	0,00000E+000	8	...........	-32768,00
	1101	110,2	3,98860E-001	-7,80464E-005	0,00000E+000	3,99005E-001	0,00000E+000	8	...........	-32768,00
	1104	110,5	3,95853E-001	-7,89908E-005	0,00000E+000	3,96005E-001	0,00000E+000	8	...........	-32768,00
	1107	110,8	3,92868E-001	-7,94121E-005	0,00000E+000	3,93005E-001	0,00000E+000	8	...........	-32768,00
	1110	111,1	3,89866E-001	-7,94267E-005	0,00000E+000	3,90004E-001	0,00000E+000	8	...........	-32768,00
	1113	111,4	3,86865E-001	-7,90621E-005	0,00000E+000	3,87004E-001	0,00000E+000	8	...........	-32768,00
	1116	111,7	3,83850E-001	-7,84116E-005	0,00000E+000	3,84004E-001	0,00000E+000	8	...........	-32768,00
	1119	112	3,80850E-001	-7,74844E-005	0,00000E+000	3,81004E-001	0,00000E+000	8	...........	-32768,00
	1122	112,3	3,77861E-001	-7,63281E-005	0,00000E+000	3,78003E-001	0,00000E+000	8	...........	-32768,00
	1125	112,6	3,74870E-001	-7,50622E-005	0,00000E+000	3,75003E-001	0,00000E+000	8	...........	-32768,00
	1128	112,9	3,71844E-001	-7,36575E-005	0,00000E+000	3,72003E-001	0,00000E+000	8	...........	-32768,00
	1131	113,2	3,68859E-001	-7,21802E-005	0,00000E+000	3,69003E-001	0,00000E+000	8	...........	-32768,00
	1134	113,5	3,65852E-001	-7,06476E-005	0,00000E+000	3,66003E-001	0,00000E+000	8	...........	-32768,00
	1137	113,8	3,62858E-001	-6,90947E-005	0,00000E+000	3,63002E-001	0,00000E+000	8	...........	-32768,00
	1140	114,1	3,59861E-001	-6,75110E-005	0,00000E+000	3,60002E-001	0,00000E+000	8	...........	-32768,00
	1143	114,4	3,56833E-001	-6,59440E-005	0,00000E+000	3,57002E-001	0,00000E+000	8	...........	-32768,00
	1146	114,7	3,53846E-001	-6,43924E-005	0,00000E+000	3,54002E-001	0,00000E+000	8	...........	-32768,00
	1149	115	3,50844E-001	-6,28958E-005	0,00000E+000	3,51001E-001	0,00000E+000	8	...........	-32768,00
	1152	115,3	3,47843E-001	-6,13810E-005	0,00000E+000	3,48001E-001	0,00000E+000	8	...........	-32768,00
	1155	115,6	3,44842E-001	-5,99657E-005	0,00000E+000	3,45001E-001	0,00000E+000	8	...........	-32768,00
	1158	115,9	3,41840E-001	-5,86139E-005	0,00000E+000	3,42001E-001	0,00000E+000	8	...........	-32768,00
	1161	116,2	3,38845E-001	-5,73154E-005	0,00000E+000	3,39000E-001	0,00000E+000	8	...........	-32768,00
	1164	116,5	3,35855E-001	-5,60709E-005	0,00000E+000	3,36000E-001	0,00000E+000	8	...........	-32768,00
	1167	116,8	3,32840E-001	-5,48813E-005	0,00000E+000	3,33000E-001	0,00000E+000	8	...........	-32768,00
	1170	117,1	3,29831E-001	-5,37527E-005	0,00000E+000	3,30000E-001	0,00000E+000	8	...........	-32768,00
	1173	117,4	3,26837E-001	-5,26983E-005	0,00000E+000	3,26999E-001	0,00000E+000	8	...........	-32768,00
	1176	117,7	3,23854E-001	-5,16816E-005	0,00000E+000	3,23999E-001	0,00000E+000	8	...........	-32768,00
	1179	118	3,20859E-001	-5,07051E-005	0,00000E+000	3,20999E-001	0,00000E+000	8	...........	-32768,00
	1182	118,3	3,17836E-001	-4,97992E-005	0,00000E+000	3,17999E-001	0,00000E+000	8	...........	-32768,00
	1185	118,6	3,14829E-001	-4,89293E-005	0,00000E+000	3,14998E-001	0,00000E+000	8	...........	-32768,00
	1188	118,9	3,11841E-001	-4,80744E-005	0,00000E+000	3,11998E-001	0,00000E+000	8	...........	-32768,00
	1191	119,2	3,08836E-001	-4,72712E-005	0,00000E+000	3,08998E-001	0,00000E+000	8	...........	-32768,00
	1194	119,5	3,05826E-001	-4,65157E-005	0,00000E+000	3,05998E-001	0,00000E+000	8	...........	-32768,00
	1197	119,8	3,02828E-001	-4,57979E-005	0,00000E+000	3,02997E-001	0,00000E+000	8	...........	-32768,00
	1200	120,1	2,99828E-001	-4,51330E-005	0,00000E+000	2,99997E-001	0,00000E+000	8	...........	-32768,00
	1203	120,4	2,96835E-001	-4,45091E-005	0,00000E+000	2,96997E-001	0,00000E+000	8	...........	-32768,00
	1206	120,7	2,93816E-001	-4,38849E-005	0,00000E+000	2,93997E-001	0,00000E+000	8	...........	-32768,00
	1209	121	2,90818E-001	-4,33139E-005	0,00000E+000	2,90996E-001	0,00000E+000	8	...........	-32768,00
	1212	121,3	2,87829E-001	-4,27737E-005	0,00000E+000	2,87996E-001	0,00000E+000	8	...........	-32768,00
	1215	121,6	2,84824E-001	-4,22648E-005	0,00000E+000	2,84996E-001	0,00000E+000	8	...........	-32768,00
	1218	121,9	2,81823E-001	-4,18069E-005	0,00000E+000	2,81996E-001	0,00000E+000	8	...........	-32768,00
	1221	122,2	2,78821E-001	-4,13410E-005	0,00000E+000	2,78996E-001	0,00000E+000	8	...........	-32768,00
	1224	122,5	2,75811E-001	-4,08878E-005	0,00000E+000	2,75995E-001	0,00000E+000	8	...........	-32768,00
	1227	122,8	2,72835E-001	-4,04658E-005	0,00000E+000	2,72995E-001	0,00000E+000	8	...........	-32768,00
	1230	123,1	2,69833E-001	-4,00806E-005	0,00000E+000	2,69995E-001	0,00000E+000	8	...........	-32768,00
	1233	123,4	2,66809E-001	-3,96886E-005	0,00000E+000	2,66995E-001	0,00000E+000	8	...........	-32768,00
	1236	123,7	2,63818E-001	-3,93223E-005	0,00000E+000	2,63994E-001	0,00000E+000	8	...........	-32768,00
	1239	124	2,60822E-001	-3,89839E-005	0,00000E+000	2,60994E-001	0,00000E+000	8	...........	-32768,00
	1242	124,3	2,57821E-001	-3,86725E-005	0,00000E+000	2,57994E-001	0,00000E+000	8	...........	-32768,00
	1245	124,6	2,54828E-001	-3,83603E-005	0,00000E+000	2,55006E-001	0,00000E+000	8	...........	-32768,00
	1248	124,9	2,51813E-001	-3,80793E-005	0,00000E+000	2,52006E-001	0,00000E+000	8	...........	-32768,00
	1251	125,2	2,48824E-001	-3,77754E-005	0,00000E+000	2,49006E-001	0,00000E+000	8	...........	-32768,00
	1254	125,5	2,45832E-001	-3,75368E-005	0,00000E+000	2,46005E-001	0,00000E+000	8	...........	-32768,00
	1257	125,8	2,42817E-001	-3,73193E-005	0,00000E+000	2,43005E-001	0,00000E+000	8	...........	-32768,00
	1260	126,1	2,39813E-001	-3,70021E-005	0,00000E+000	2,40005E-001	0,00000E+000	8	...........	-32768,00
	1263	126,4	2,36820E-001	-3,67781E-005	0,00000E+000	2,37005E-001	0,00000E+000	8	...........	-32768,00
	1266	126,7	2,33814E-001	-3,65293E-005	0,00000E+000	2,34004E-001	0,00000E+000	8	...........	-32768,00
	1269	127	2,30821E-001	-3,62914E-005	0,00000E+000	2,31004E-001	0,00000E+000	8	...........	-32768,00
	1272	127,3	2,27820E-001	-3,60410E-005	0,00000E+000	2,28004E-001	0,00000E+000	8	...........	-32768,00
	1275	127,6	2,24809E-001	-3,57985E-005	0,00000E+000	2,25004E-001	0,00000E+000	8	...........	-32768,00
	1278	127,9	2,21820E-001	-3,55441E-005	0,00000E+000	2,22003E-001	0,00000E+000	8	...........	-32768,00
	1281	128,2	2,18834E-001	-3,53234E-005	0,00000E+000	2,19003E-001	0,00000E+000	8	...........	-32768,00
	1284	128,5	2,15802E-001	-3,50761E-005	0,00000E+000	2,16003E-001	0,00000E+000	8	...........	-32768,00
	1287	128,8	2,12814E-001	-3,48282E-005	0,00000E+000	2,13003E-001	0,00000E+000	8	...........	-32768,00
	1290	129,1	2,09812E-001	-3,45383E-005	0,00000E+000	2,10003E-001	0,00000E+000	8	...........	-32768,00
	1293	129,4	2,06812E-001	-3,42959E-005	0,00000E+000	2,07002E-001	0,00000E+000	8	...........	-32768,00
	1296	129,7	2,03812E-001	-3,40295E-005	0,00000E+000	2,04002E-001	0,00000E+000	8	...........	-32768,00
	1299	130	2,00806E-001	-3,37757E-005	0,00000E+000	2,01002E-001	0,00000E+000	8	...........	-32768,00
	1302	130,3	1,97800E-001	-3,35201E-005	0,00000E+000	1,98002E-001	0,00000E+000	8	...........	-32768,00
	1305	130,6	1,94826E-001	-3,32978E-005	0,00000E+000	1,95001E-001	0,00000E+000	8	...........	-32768,00
	1308	130,9	1,91799E-001	-3,30948E-005	0,00000E+000	1,92001E-001	0,00000E+000	8	...........	-32768,00
	1311	131,2	1,88806E-001	-3,28827E-005	0,00000E+000	1,89001E-001	0,00000E+000	8	...........	-32768,00
	1314	131,5	1,85815E-001	-3,26581E-005	0,00000E+000	1,86001E-001	0,00000E+000	8	...........	-32768,00
	1317	131,8	1,82820E-001	-3,24743E-005	0,00000E+000	1,83000E-001	0,00000E+000	8	...........	-32768,00
	1320	132,1	1,79825E-001	-3,22764E-005	0,00000E+000	1,80000E-001	0,00000E+000	8	...........	-32768,00
	1323	132,4	1,76811E-001	-3,21898E-005	0,00000E+000	1,77000E-001	0,00000E+000	8	...........	-32768,00
	1326	132,7	1,73812E-001	-3,20163E-005	0,00000E+000	1,74000E-001	0,00000E+000	8	...........	-32768,00
	1329	133	1,70814E-001	-3,18556E-005	0,00000E+000	1,70999E-001	0,00000E+000	8	...........	-32768,00
	1332	133,3	1,67828E-001	-3,17458E-005	0,00000E+000	1,67999E-001	0,00000E+000	8	...........	-32768,00
	1335	133,6	1,64791E-001	-3,15669E-005	0,00000E+000	1,64999E-001	0,00000E+000	8	...........	-32768,00
	1338	133,9	1,61798E-001	-3,14485E-005	0,00000E+000	1,61999E-001	0,00000E+000	8	...........	-32768,00
	1341	134,2	1,58805E-001	-3,12950E-005	0,00000E+000	1,58998E-001	0,00000E+000	8	...........	-32768,00
	1344	134,5	1,55811E-001	-3,12085E-005	0,00000E+000	1,55998E-001	0,00000E+000	8	...........	-32768,00
	1347	134,8	1,52793E-001	-3,10809E-005	0,00000E+000	1,52998E-001	0,00000E+000	8	...........	-32768,00
	1350	135,1	1,49793E-001	-3,09798E-005	0,00000E+000	1,49998E-001	0,00000E+000	8	...........	-32768,00
	1353	135,4	1,46786E-001	-3,09264E-005	0,00000E+000	1,46997E-001	0,00000E+000	8	...........	-32768,00
	1356	135,7	1,43803E-001	-3,08318E-005	0,00000E+000	1,43997E-001	0,00000E+000	8	...........	-32768,00
	1359	136	1,40776E-001	-3,07559E-005	0,00000E+000	1,40997E-001	0,00000E+000	8	...........	-32768,00
	1362	136,3	1,37782E-001	-3,07463E-005	0,00000E+000	1,37997E-001	0,00000E+000	8	...........	-32768,00
	1365	136,6	1,34802E-001	-3,06564E-005	0,00000E+000	1,34997E-001	0,00000E+000	8	...........	-32768,00
	1368	136,9	1,31795E-001	-3,06395E-005	0,00000E+000	1,31996E-001	0,00000E+000	8	...........	-32768,00
	1371	137,2	1,28814E-001	-3,05529E-005	0,00000E+000	1,28996E-001	0,00000E+000	8	...........	-32768,00
	1374	137,5	1,25789E-001	-3,04793E-005	0,00000E+000	1,25996E-001	0,00000E+000	8	...........	-32768,00
	1377	137,8	1,22800E-001	-3,04047E-005	0,00000E+000	1,22996E-001	0,00000E+000	8	...........	-32768,00
	1380	138,1	1,19797E-001	-3,03859E-005	0,00000E+000	1,19995E-001	0,00000E+000	8	...........	-32768,00
	1383	138,4	1,16801E-001	-3,03936E-005	0,00000E+000	1,16995E-001	0,00000E+000	8	...........	-32768,00
	1386	138,7	1,13784E-001	-3,03408E-005	0,00000E+000	1,13995E-001	0,00000E+000	8	...........	-32768,00
	1389	139	1,10781E-001	-3,03323E-005	0,00000E+000	1,10995E-001	0,00000E+000	8	...........	-32768,00
	1392	139,3	1,07790E-001	-3,03650E-005	0,00000E+000	1,07994E-001	0,00000E+000	8	...........	-32768,00
	1395	139,6	1,04785E-001	-3,03492E-005	0,00000E+000	1,04994E-001	0,00000E+000	8	...........	-32768,00
	1398	139,9	1,01796E-001	-3,04797E-005	0,00000E+000	1,01994E-001	0,00000E+000	8	...........	-32768,00
	1400	140,1	9,97928E-002	-3,04942E-005	0,00000E+000	1,00006E-001	0,00000E+000	8	...........	-32768,00