File: HOPG_cv/3mM/AgNO3_HOPG_3mM_60mv_1_cv.DTA
EXPLAIN
TAG	CV
TITLE	LABEL	Cyclic Voltammetry	Test &Identifier
DATE	LABEL	30/4/2022	Date
TIME	LABEL	16:03:48	Time
NOTES	NOTES	2	&Notes...
	30/04/22 , 5mM  AgNO3

PSTAT	PSTAT	IFC1000-09004	Potentiostat
VINIT	POTEN	1,00000E-001	F	Initial &E (V)
VLIMIT1	POTEN	1,00000E-001	F	Scan Limit &1 (V)
VLIMIT2	POTEN	8,00000E-001	F	Scan Limit &2 (V)
VFINAL	POTEN	1,00000E-001	F	Final &E (V)
SCANRATE	QUANT	5,99999E+001	&Scan Rate (mV/s)
STEPSIZE	QUANT	1,00000E+000	St&ep Size (mV)
CYCLES	IQUANT	1	C&ycles (#)
IMODE	SELECTOR	0	I/E Range &Mode
IRANGE	QUANT	1,00000E-005	&Max Current (mA)
AREA	QUANT	1,00000E+000	Electrode &Area (cm^2)
ELECTRODETYPE	SELECTOR	0	Electrode Type
STRIPPING	TOGGLE	F	Used for Stripping
POLARITY	TOGGLE	F	Signal Polarity
CONDIT	TWOPARAM	F	1,50000E+001	0,00000E+000	Conditionin&g	Time(s)	E(V)
DELAY	TWOPARAM	F	3,00000E+001	0,00000E+000	Init. De&lay	Time(s)	Stab.(mV/s)
EQDELAY	QUANT	1,00000E+001	Equil. &Time (s)
IRCOMP	SELECTOR	0	IRCom&p
PFCOR	QUANT	5,00000E+001	PF Corr. (ohm)
SAMPLINGMODE	SELECTOR	1	Sampling &Mode
EOC	QUANT	0	Open Circuit (V)
PSTATMODEL	IQUANT	48	Pstat Model
PSTATSECTION	LABEL	IFC1000-09004	Pstat Section
PSTATSERIALNO	LABEL	09004	Pstat Serial Number
CTRLMODE	IQUANT	1	Control Mode
ELECTROMETER	IQUANT	0	RE=0 or CS=1
IESTAB	IQUANT	2	I/E Stability
CASPEED	IQUANT	4	Control Amp Speed
CONVENTION	IQUANT	1	Current Convention
ICHRANGE	IQUANT	2	Ich Range
ICHRANGEMODE	TOGGLE	F	Ich Auto Range
ICHOFFSETENABLE	TOGGLE	F	Ich Offset Enable
ICHOFFSET	QUANT	0	Ich Offset (V)
ICHFILTER	IQUANT	3	Ich Filter
VCHRANGE	IQUANT	2	Vch Range
VCHRANGEMODE	TOGGLE	F	Vch Auto Range
VCHOFFSETENABLE	TOGGLE	F	Vch Offset Enable
VCHOFFSET	QUANT	0	Vch Offset (V)
VCHFILTER	IQUANT	3	Vch Filter
IERANGELOWERLIMIT	IQUANT	4	I/E Range Lower Limit
IERANGEMODE	TOGGLE	T	I/E AutoRange
IERANGE	IQUANT	5	I/E Range
ACHSELECT	IQUANT	0	Ach Select
ACHRANGE	IQUANT	2	Ach Range
ACHOFFSETENABLE	TOGGLE	F	Ach Offset Enable
ACHOFFSET	QUANT	0	Ach Offset (V)
ACHFILTER	IQUANT	1	Ach Filter
CABLEID	IQUANT	14	Cable ID
DCCALDATE	LABEL	3/18/2022	DC Calibration Date
ACCALDATE	LABEL	3/10/2016	AC Calibration Date
FRAMEWORKVERSION	QUANT	7,05	Framework Version
INSTRUMENTVERSION	LABEL	4.21	Instrument Version
CURVE1	TABLE
	Pt	T	Vf	Im	Vu	Sig	Ach	IERange	Over	Temp
	#	s	V vs. Ref.	A	V	V	V	#	bits	deg C
	0	0,016667	9,98319E-002	-1,09478E-005	0,00000E+000	1,00006E-001	0,00000E+000	7	....ih..i..	-32768,00
	3	0,066667	1,02783E-001	-3,33644E-005	0,00000E+000	1,02994E-001	0,00000E+000	8	...........	-32768,00
	6	0,116667	1,05796E-001	-3,28487E-005	0,00000E+000	1,05994E-001	0,00000E+000	8	...........	-32768,00
	9	0,166667	1,08789E-001	-3,24064E-005	0,00000E+000	1,08994E-001	0,00000E+000	8	...........	-32768,00
	12	0,216667	1,11792E-001	-3,19717E-005	0,00000E+000	1,11995E-001	0,00000E+000	8	...........	-32768,00
	15	0,266667	1,14793E-001	-3,16686E-005	0,00000E+000	1,14995E-001	0,00000E+000	8	...........	-32768,00
	18	0,316667	1,17814E-001	-3,12671E-005	0,00000E+000	1,17995E-001	0,00000E+000	8	...........	-32768,00
	21	0,366667	1,20793E-001	-3,09721E-005	0,00000E+000	1,20995E-001	0,00000E+000	8	...........	-32768,00
	24	0,416667	1,23796E-001	-3,06635E-005	0,00000E+000	1,23996E-001	0,00000E+000	8	...........	-32768,00
	27	0,466667	1,26794E-001	-3,03490E-005	0,00000E+000	1,26996E-001	0,00000E+000	8	...........	-32768,00
	30	0,516667	1,29818E-001	-3,00735E-005	0,00000E+000	1,29996E-001	0,00000E+000	8	...........	-32768,00
	33	0,566667	1,32801E-001	-2,98121E-005	0,00000E+000	1,32996E-001	0,00000E+000	8	...........	-32768,00
	36	0,616667	1,35797E-001	-2,95639E-005	0,00000E+000	1,35997E-001	0,00000E+000	8	...........	-32768,00
	39	0,666667	1,38800E-001	-2,93523E-005	0,00000E+000	1,38997E-001	0,00000E+000	8	...........	-32768,00
	42	0,716667	1,41809E-001	-2,90884E-005	0,00000E+000	1,41997E-001	0,00000E+000	8	...........	-32768,00
	45	0,766667	1,44798E-001	-2,88706E-005	0,00000E+000	1,44997E-001	0,00000E+000	8	...........	-32768,00
	48	0,816667	1,47797E-001	-2,86802E-005	0,00000E+000	1,47998E-001	0,00000E+000	8	...........	-32768,00
	51	0,866667	1,50793E-001	-2,84202E-005	0,00000E+000	1,50998E-001	0,00000E+000	8	...........	-32768,00
	54	0,916667	1,53800E-001	-2,82075E-005	0,00000E+000	1,53998E-001	0,00000E+000	8	...........	-32768,00
	57	0,96667	1,56798E-001	-2,79892E-005	0,00000E+000	1,56998E-001	0,00000E+000	8	...........	-32768,00
	60	1,01667	1,59810E-001	-2,78102E-005	0,00000E+000	1,59999E-001	0,00000E+000	8	...........	-32768,00
	63	1,06667	1,62811E-001	-2,76263E-005	0,00000E+000	1,62999E-001	0,00000E+000	8	...........	-32768,00
	66	1,11667	1,65800E-001	-2,74282E-005	0,00000E+000	1,65999E-001	0,00000E+000	8	...........	-32768,00
	69	1,16667	1,68836E-001	-2,72770E-005	0,00000E+000	1,68999E-001	0,00000E+000	8	...........	-32768,00
	72	1,21667	1,71814E-001	-2,70856E-005	0,00000E+000	1,71999E-001	0,00000E+000	8	...........	-32768,00
	75	1,26667	1,74816E-001	-2,69128E-005	0,00000E+000	1,75000E-001	0,00000E+000	8	...........	-32768,00
	78	1,31667	1,77785E-001	-2,67493E-005	0,00000E+000	1,78000E-001	0,00000E+000	8	...........	-32768,00
	81	1,36667	1,80835E-001	-2,65916E-005	0,00000E+000	1,81000E-001	0,00000E+000	8	...........	-32768,00
	84	1,41667	1,83823E-001	-2,64235E-005	0,00000E+000	1,84000E-001	0,00000E+000	8	...........	-32768,00
	87	1,46667	1,86822E-001	-2,62808E-005	0,00000E+000	1,87001E-001	0,00000E+000	8	...........	-32768,00
	90	1,51667	1,89822E-001	-2,61140E-005	0,00000E+000	1,90001E-001	0,00000E+000	8	...........	-32768,00
	93	1,56667	1,92835E-001	-2,59681E-005	0,00000E+000	1,93001E-001	0,00000E+000	8	...........	-32768,00
	96	1,61667	1,95826E-001	-2,58273E-005	0,00000E+000	1,96001E-001	0,00000E+000	8	...........	-32768,00
	99	1,66667	1,98815E-001	-2,56776E-005	0,00000E+000	1,99002E-001	0,00000E+000	8	...........	-32768,00
	102	1,71667	2,01799E-001	-2,55345E-005	0,00000E+000	2,02002E-001	0,00000E+000	8	...........	-32768,00
	105	1,76667	2,04802E-001	-2,53956E-005	0,00000E+000	2,05002E-001	0,00000E+000	8	...........	-32768,00
	108	1,81667	2,07820E-001	-2,52704E-005	0,00000E+000	2,08002E-001	0,00000E+000	8	...........	-32768,00
	111	1,86667	2,10808E-001	-2,51222E-005	0,00000E+000	2,11003E-001	0,00000E+000	8	...........	-32768,00
	114	1,91667	2,13822E-001	-2,49826E-005	0,00000E+000	2,14003E-001	0,00000E+000	8	...........	-32768,00
	117	1,96667	2,16810E-001	-2,48509E-005	0,00000E+000	2,17003E-001	0,00000E+000	8	...........	-32768,00
	120	2,01667	2,19824E-001	-2,47276E-005	0,00000E+000	2,20003E-001	0,00000E+000	8	...........	-32768,00
	123	2,06667	2,22823E-001	-2,46098E-005	0,00000E+000	2,23004E-001	0,00000E+000	8	...........	-32768,00
	126	2,11667	2,25811E-001	-2,44631E-005	0,00000E+000	2,26004E-001	0,00000E+000	8	...........	-32768,00
	129	2,16667	2,28799E-001	-2,43345E-005	0,00000E+000	2,29004E-001	0,00000E+000	8	...........	-32768,00
	132	2,21667	2,31837E-001	-2,42092E-005	0,00000E+000	2,32004E-001	0,00000E+000	8	...........	-32768,00
	135	2,26667	2,34822E-001	-2,40863E-005	0,00000E+000	2,35005E-001	0,00000E+000	8	...........	-32768,00
	138	2,31667	2,37825E-001	-2,39543E-005	0,00000E+000	2,38005E-001	0,00000E+000	8	...........	-32768,00
	141	2,36667	2,40819E-001	-2,38373E-005	0,00000E+000	2,41005E-001	0,00000E+000	8	...........	-32768,00
	144	2,41667	2,43832E-001	-2,36822E-005	0,00000E+000	2,44005E-001	0,00000E+000	8	...........	-32768,00
	147	2,46667	2,46821E-001	-2,35593E-005	0,00000E+000	2,47005E-001	0,00000E+000	8	...........	-32768,00
	150	2,51667	2,49835E-001	-2,34487E-005	0,00000E+000	2,50006E-001	0,00000E+000	8	...........	-32768,00
	153	2,56667	2,52812E-001	-2,33143E-005	0,00000E+000	2,53006E-001	0,00000E+000	8	...........	-32768,00
	156	2,61667	2,55819E-001	-2,31939E-005	0,00000E+000	2,56006E-001	0,00000E+000	8	...........	-32768,00
	159	2,66667	2,58834E-001	-2,30624E-005	0,00000E+000	2,58994E-001	0,00000E+000	8	...........	-32768,00
	162	2,71667	2,61818E-001	-2,29289E-005	0,00000E+000	2,61994E-001	0,00000E+000	8	...........	-32768,00
	165	2,76667	2,64819E-001	-2,28074E-005	0,00000E+000	2,64994E-001	0,00000E+000	8	...........	-32768,00
	168	2,81667	2,67804E-001	-2,26782E-005	0,00000E+000	2,67995E-001	0,00000E+000	8	...........	-32768,00
	171	2,86667	2,70830E-001	-2,25389E-005	0,00000E+000	2,70995E-001	0,00000E+000	8	...........	-32768,00
	174	2,91667	2,73822E-001	-2,23968E-005	0,00000E+000	2,73995E-001	0,00000E+000	8	...........	-32768,00
	177	2,96667	2,76820E-001	-2,22756E-005	0,00000E+000	2,76995E-001	0,00000E+000	8	...........	-32768,00
	180	3,01667	2,79814E-001	-2,21347E-005	0,00000E+000	2,79996E-001	0,00000E+000	8	...........	-32768,00
	183	3,06667	2,82847E-001	-2,19916E-005	0,00000E+000	2,82996E-001	0,00000E+000	8	...........	-32768,00
	186	3,11667	2,85836E-001	-2,18488E-005	0,00000E+000	2,85996E-001	0,00000E+000	8	...........	-32768,00
	189	3,16667	2,88813E-001	-2,16948E-005	0,00000E+000	2,88996E-001	0,00000E+000	8	...........	-32768,00
	192	3,21667	2,91818E-001	-2,15374E-005	0,00000E+000	2,91997E-001	0,00000E+000	8	...........	-32768,00
	195	3,26667	2,94811E-001	-2,13804E-005	0,00000E+000	2,94997E-001	0,00000E+000	8	...........	-32768,00
	198	3,31667	2,97829E-001	-2,12160E-005	0,00000E+000	2,97997E-001	0,00000E+000	8	...........	-32768,00
	201	3,36667	3,00832E-001	-2,10417E-005	0,00000E+000	3,00997E-001	0,00000E+000	8	...........	-32768,00
	204	3,41667	3,03807E-001	-2,08499E-005	0,00000E+000	3,03998E-001	0,00000E+000	8	...........	-32768,00
	207	3,46667	3,06831E-001	-2,06777E-005	0,00000E+000	3,06998E-001	0,00000E+000	8	...........	-32768,00
	210	3,51667	3,09828E-001	-2,04726E-005	0,00000E+000	3,09998E-001	0,00000E+000	8	...........	-32768,00
	213	3,56667	3,12836E-001	-2,02623E-005	0,00000E+000	3,12998E-001	0,00000E+000	8	...........	-32768,00
	216	3,61667	3,15838E-001	-2,00441E-005	0,00000E+000	3,15998E-001	0,00000E+000	8	...........	-32768,00
	219	3,66667	3,18829E-001	-1,98154E-005	0,00000E+000	3,18999E-001	0,00000E+000	8	...........	-32768,00
	222	3,71667	3,21854E-001	-1,95747E-005	0,00000E+000	3,21999E-001	0,00000E+000	8	...........	-32768,00
	225	3,76667	3,24849E-001	-1,93200E-005	0,00000E+000	3,24999E-001	0,00000E+000	8	...........	-32768,00
	228	3,81667	3,27848E-001	-1,90357E-005	0,00000E+000	3,27999E-001	0,00000E+000	8	...........	-32768,00
	231	3,86667	3,30835E-001	-1,87378E-005	0,00000E+000	3,31000E-001	0,00000E+000	8	...........	-32768,00
	234	3,91667	3,33851E-001	-1,83859E-005	0,00000E+000	3,34000E-001	0,00000E+000	8	...........	-32768,00
	237	3,96667	3,36847E-001	-1,80078E-005	0,00000E+000	3,37000E-001	0,00000E+000	8	...........	-32768,00
	240	4,01667	3,39851E-001	-1,75312E-005	0,00000E+000	3,40000E-001	0,00000E+000	8	...........	-32768,00
	243	4,06667	3,42847E-001	-1,69753E-005	0,00000E+000	3,43001E-001	0,00000E+000	8	...........	-32768,00
	246	4,11667	3,45841E-001	-1,63672E-005	0,00000E+000	3,46001E-001	0,00000E+000	8	...........	-32768,00
	249	4,16667	3,48847E-001	-1,57548E-005	0,00000E+000	3,49001E-001	0,00000E+000	8	...........	-32768,00
	252	4,21667	3,51837E-001	-1,51603E-005	0,00000E+000	3,52001E-001	0,00000E+000	8	...........	-32768,00
	255	4,26667	3,54839E-001	-1,45756E-005	0,00000E+000	3,55002E-001	0,00000E+000	8	...........	-32768,00
	258	4,31667	3,57836E-001	-1,39929E-005	0,00000E+000	3,58002E-001	0,00000E+000	8	...........	-32768,00
	261	4,36667	3,60845E-001	-1,33900E-005	0,00000E+000	3,61002E-001	0,00000E+000	8	...........	-32768,00
	264	4,41667	3,63852E-001	-1,27536E-005	0,00000E+000	3,64002E-001	0,00000E+000	8	...........	-32768,00
	267	4,46667	3,66851E-001	-1,20733E-005	0,00000E+000	3,67003E-001	0,00000E+000	8	...........	-32768,00
	270	4,51667	3,69845E-001	-1,13812E-005	0,00000E+000	3,70003E-001	0,00000E+000	8	...........	-32768,00
	273	4,56667	3,72868E-001	-1,06200E-005	0,00000E+000	3,73003E-001	0,00000E+000	8	...........	-32768,00
	276	4,61667	3,75857E-001	-9,82266E-006	0,00000E+000	3,76003E-001	0,00000E+000	8	...........	-32768,00
	279	4,66667	3,78860E-001	-8,96353E-006	0,00000E+000	3,79004E-001	0,00000E+000	8	...........	-32768,00
	282	4,71667	3,81861E-001	-8,05722E-006	0,00000E+000	3,82004E-001	0,00000E+000	8	...........	-32768,00
	285	4,76667	3,84869E-001	-7,06395E-006	0,00000E+000	3,85004E-001	0,00000E+000	7	...........	-32768,00
	288	4,81667	3,87866E-001	-6,01753E-006	0,00000E+000	3,88004E-001	0,00000E+000	7	...........	-32768,00
	291	4,86667	3,90863E-001	-4,91832E-006	0,00000E+000	3,91005E-001	0,00000E+000	7	...........	-32768,00
	294	4,91667	3,93848E-001	-3,75880E-006	0,00000E+000	3,94005E-001	0,00000E+000	7	...........	-32768,00
	297	4,96667	3,96863E-001	-2,54630E-006	0,00000E+000	3,97005E-001	0,00000E+000	7	...........	-32768,00
	300	5,01667	3,99857E-001	-1,27533E-006	0,00000E+000	4,00005E-001	0,00000E+000	7	...........	-32768,00
	303	5,06667	4,02872E-001	4,85933E-008	0,00000E+000	4,03005E-001	0,00000E+000	7	...........	-32768,00
	306	5,11667	4,05853E-001	1,43262E-006	0,00000E+000	4,06006E-001	0,00000E+000	7	...........	-32768,00
	309	5,16667	4,08832E-001	2,87351E-006	0,00000E+000	4,09006E-001	0,00000E+000	7	...........	-32768,00
	312	5,21667	4,11863E-001	4,36997E-006	0,00000E+000	4,12006E-001	0,00000E+000	7	...........	-32768,00
	315	5,26667	4,14840E-001	5,91771E-006	0,00000E+000	4,14994E-001	0,00000E+000	7	...........	-32768,00
	318	5,31667	4,17826E-001	7,54092E-006	0,00000E+000	4,17994E-001	0,00000E+000	7	...........	-32768,00
	321	5,36667	4,20825E-001	9,20638E-006	0,00000E+000	4,20994E-001	0,00000E+000	7	...........	-32768,00
	324	5,41667	4,23855E-001	1,09144E-005	0,00000E+000	4,23995E-001	0,00000E+000	8	...........	-32768,00
	327	5,46667	4,26864E-001	1,26540E-005	0,00000E+000	4,26995E-001	0,00000E+000	8	...........	-32768,00
	330	5,51667	4,29855E-001	1,44289E-005	0,00000E+000	4,29995E-001	0,00000E+000	8	...........	-32768,00
	333	5,56667	4,32856E-001	1,62512E-005	0,00000E+000	4,32995E-001	0,00000E+000	8	...........	-32768,00
	336	5,61667	4,35851E-001	1,81343E-005	0,00000E+000	4,35996E-001	0,00000E+000	8	...........	-32768,00
	339	5,66667	4,38850E-001	2,01006E-005	0,00000E+000	4,38996E-001	0,00000E+000	8	...........	-32768,00
	342	5,71667	4,41848E-001	2,21414E-005	0,00000E+000	4,41996E-001	0,00000E+000	8	...........	-32768,00
	345	5,76667	4,44839E-001	2,42950E-005	0,00000E+000	4,44996E-001	0,00000E+000	8	...........	-32768,00
	348	5,81667	4,47847E-001	2,65594E-005	0,00000E+000	4,47997E-001	0,00000E+000	8	...........	-32768,00
	351	5,86667	4,50857E-001	2,89341E-005	0,00000E+000	4,50997E-001	0,00000E+000	8	...........	-32768,00
	354	5,91667	4,53852E-001	3,14691E-005	0,00000E+000	4,53997E-001	0,00000E+000	8	...........	-32768,00
	357	5,96667	4,56860E-001	3,42016E-005	0,00000E+000	4,56997E-001	0,00000E+000	8	...........	-32768,00
	360	6,01667	4,59836E-001	3,71455E-005	0,00000E+000	4,59998E-001	0,00000E+000	8	...........	-32768,00
	363	6,06667	4,62847E-001	4,03155E-005	0,00000E+000	4,62998E-001	0,00000E+000	8	...........	-32768,00
	366	6,11667	4,65862E-001	4,36786E-005	0,00000E+000	4,65998E-001	0,00000E+000	8	...........	-32768,00
	369	6,16667	4,68851E-001	4,72881E-005	0,00000E+000	4,68998E-001	0,00000E+000	8	...........	-32768,00
	372	6,21667	4,71849E-001	5,11553E-005	0,00000E+000	4,71999E-001	0,00000E+000	8	...........	-32768,00
	375	6,26667	4,74865E-001	5,52872E-005	0,00000E+000	4,74999E-001	0,00000E+000	8	...........	-32768,00
	378	6,31667	4,77875E-001	5,96413E-005	0,00000E+000	4,77999E-001	0,00000E+000	8	...........	-32768,00
	381	6,36667	4,80862E-001	6,43070E-005	0,00000E+000	4,80999E-001	0,00000E+000	8	...........	-32768,00
	384	6,41667	4,83852E-001	6,92912E-005	0,00000E+000	4,83999E-001	0,00000E+000	8	...........	-32768,00
	387	6,46667	4,86863E-001	7,45512E-005	0,00000E+000	4,87000E-001	0,00000E+000	8	...........	-32768,00
	390	6,51667	4,89867E-001	8,00860E-005	0,00000E+000	4,90000E-001	0,00000E+000	8	...........	-32768,00
	393	6,56667	4,92870E-001	8,58926E-005	0,00000E+000	4,93000E-001	0,00000E+000	8	...........	-32768,00
	396	6,61667	4,95860E-001	9,20277E-005	0,00000E+000	4,96000E-001	0,00000E+000	9	...........	-32768,00
	399	6,66667	4,98858E-001	9,84727E-005	0,00000E+000	4,99001E-001	0,00000E+000	9	...........	-32768,00
	402	6,71667	5,01885E-001	1,05243E-004	0,00000E+000	5,02001E-001	0,00000E+000	9	...........	-32768,00
	405	6,76667	5,04865E-001	1,12344E-004	0,00000E+000	5,05001E-001	0,00000E+000	9	...........	-32768,00
	408	6,81667	5,07872E-001	1,19801E-004	0,00000E+000	5,08001E-001	0,00000E+000	9	...........	-32768,00
	411	6,86667	5,10867E-001	1,27465E-004	0,00000E+000	5,11002E-001	0,00000E+000	9	...........	-32768,00
	414	6,91667	5,13894E-001	1,35542E-004	0,00000E+000	5,14002E-001	0,00000E+000	9	...........	-32768,00
	417	6,96667	5,16877E-001	1,43920E-004	0,00000E+000	5,17002E-001	0,00000E+000	9	...........	-32768,00
	420	7,01667	5,19881E-001	1,52619E-004	0,00000E+000	5,20002E-001	0,00000E+000	9	...........	-32768,00
	423	7,06667	5,22884E-001	1,61520E-004	0,00000E+000	5,23003E-001	0,00000E+000	9	...........	-32768,00
	426	7,11667	5,25874E-001	1,70911E-004	0,00000E+000	5,26003E-001	0,00000E+000	9	...........	-32768,00
	429	7,16667	5,28900E-001	1,80479E-004	0,00000E+000	5,29003E-001	0,00000E+000	9	...........	-32768,00
	432	7,21667	5,31876E-001	1,90258E-004	0,00000E+000	5,32003E-001	0,00000E+000	9	...........	-32768,00
	435	7,26667	5,34878E-001	2,00437E-004	0,00000E+000	5,35004E-001	0,00000E+000	9	...........	-32768,00
	438	7,31667	5,37875E-001	2,10794E-004	0,00000E+000	5,38004E-001	0,00000E+000	9	...........	-32768,00
	441	7,36667	5,40911E-001	2,21339E-004	0,00000E+000	5,41004E-001	0,00000E+000	9	...........	-32768,00
	444	7,41667	5,43881E-001	2,32280E-004	0,00000E+000	5,44004E-001	0,00000E+000	9	...........	-32768,00
	447	7,46667	5,46890E-001	2,43569E-004	0,00000E+000	5,47005E-001	0,00000E+000	9	...........	-32768,00
	450	7,51667	5,49896E-001	2,54884E-004	0,00000E+000	5,50005E-001	0,00000E+000	9	...........	-32768,00
	453	7,56667	5,52889E-001	2,66507E-004	0,00000E+000	5,53005E-001	0,00000E+000	9	...........	-32768,00
	456	7,61667	5,55879E-001	2,78389E-004	0,00000E+000	5,56005E-001	0,00000E+000	9	...........	-32768,00
	459	7,66667	5,58877E-001	2,90662E-004	0,00000E+000	5,59005E-001	0,00000E+000	9	...........	-32768,00
	462	7,71667	5,61878E-001	3,02989E-004	0,00000E+000	5,62006E-001	0,00000E+000	9	...........	-32768,00
	465	7,76667	5,64918E-001	3,15557E-004	0,00000E+000	5,65006E-001	0,00000E+000	9	...........	-32768,00
	468	7,81667	5,67896E-001	3,28310E-004	0,00000E+000	5,68006E-001	0,00000E+000	9	...........	-32768,00
	471	7,86667	5,70888E-001	3,40881E-004	0,00000E+000	5,70994E-001	0,00000E+000	9	...........	-32768,00
	474	7,91667	5,73881E-001	3,53523E-004	0,00000E+000	5,73994E-001	0,00000E+000	9	...........	-32768,00
	477	7,96667	5,76875E-001	3,66238E-004	0,00000E+000	5,76994E-001	0,00000E+000	9	...........	-32768,00
	480	8,01667	5,79891E-001	3,78968E-004	0,00000E+000	5,79995E-001	0,00000E+000	9	...........	-32768,00
	483	8,06667	5,82881E-001	3,91600E-004	0,00000E+000	5,82995E-001	0,00000E+000	9	...........	-32768,00
	486	8,11667	5,85881E-001	4,03982E-004	0,00000E+000	5,85995E-001	0,00000E+000	9	...........	-32768,00
	489	8,16667	5,88879E-001	4,15824E-004	0,00000E+000	5,88995E-001	0,00000E+000	9	...........	-32768,00
	492	8,21667	5,91891E-001	4,26917E-004	0,00000E+000	5,91996E-001	0,00000E+000	9	...........	-32768,00
	495	8,26667	5,94892E-001	4,36864E-004	0,00000E+000	5,94996E-001	0,00000E+000	9	...........	-32768,00
	498	8,31667	5,97892E-001	4,45214E-004	0,00000E+000	5,97996E-001	0,00000E+000	9	...........	-32768,00
	501	8,36667	6,00882E-001	4,51702E-004	0,00000E+000	6,00996E-001	0,00000E+000	9	...........	-32768,00
	504	8,41667	6,03909E-001	4,55645E-004	0,00000E+000	6,03997E-001	0,00000E+000	9	...........	-32768,00
	507	8,46667	6,06897E-001	4,56964E-004	0,00000E+000	6,06997E-001	0,00000E+000	9	...........	-32768,00
	510	8,51667	6,09897E-001	4,55275E-004	0,00000E+000	6,09997E-001	0,00000E+000	9	...........	-32768,00
	513	8,56667	6,12893E-001	4,50388E-004	0,00000E+000	6,12997E-001	0,00000E+000	9	...........	-32768,00
	516	8,61667	6,15914E-001	4,41832E-004	0,00000E+000	6,15998E-001	0,00000E+000	9	...........	-32768,00
	519	8,66667	6,18916E-001	4,28116E-004	0,00000E+000	6,18998E-001	0,00000E+000	9	...........	-32768,00
	522	8,71667	6,21900E-001	4,08032E-004	0,00000E+000	6,21998E-001	0,00000E+000	9	...........	-32768,00
	525	8,76667	6,24885E-001	3,80765E-004	0,00000E+000	6,24998E-001	0,00000E+000	9	...........	-32768,00
	528	8,81667	6,27905E-001	3,46185E-004	0,00000E+000	6,27999E-001	0,00000E+000	9	...........	-32768,00
	531	8,86667	6,30922E-001	3,04209E-004	0,00000E+000	6,30999E-001	0,00000E+000	9	...........	-32768,00
	534	8,91667	6,33924E-001	2,53908E-004	0,00000E+000	6,33999E-001	0,00000E+000	9	...........	-32768,00
	537	8,96667	6,36932E-001	1,95643E-004	0,00000E+000	6,36999E-001	0,00000E+000	9	...........	-32768,00
	540	9,01667	6,39919E-001	1,46348E-004	0,00000E+000	6,40000E-001	0,00000E+000	9	...........	-32768,00
	543	9,06667	6,42921E-001	1,27967E-004	0,00000E+000	6,43000E-001	0,00000E+000	9	...........	-32768,00
	546	9,11667	6,45922E-001	1,18439E-004	0,00000E+000	6,46000E-001	0,00000E+000	9	...........	-32768,00
	549	9,16667	6,48914E-001	1,11545E-004	0,00000E+000	6,49000E-001	0,00000E+000	9	...........	-32768,00
	552	9,21667	6,51914E-001	1,06070E-004	0,00000E+000	6,52000E-001	0,00000E+000	9	...........	-32768,00
	555	9,26667	6,54918E-001	1,01633E-004	0,00000E+000	6,55001E-001	0,00000E+000	9	...........	-32768,00
	558	9,31667	6,57919E-001	9,78839E-005	0,00000E+000	6,58001E-001	0,00000E+000	9	...........	-32768,00
	561	9,36667	6,60917E-001	9,47434E-005	0,00000E+000	6,61001E-001	0,00000E+000	9	...........	-32768,00
	564	9,41667	6,63906E-001	9,20199E-005	0,00000E+000	6,64001E-001	0,00000E+000	9	...........	-32768,00
	567	9,46667	6,66932E-001	8,96938E-005	0,00000E+000	6,67002E-001	0,00000E+000	9	...........	-32768,00
	570	9,5167	6,69935E-001	8,75845E-005	0,00000E+000	6,70002E-001	0,00000E+000	9	...........	-32768,00
	573	9,5667	6,72916E-001	8,57529E-005	0,00000E+000	6,73002E-001	0,00000E+000	9	...........	-32768,00
	576	9,6167	6,75925E-001	8,40705E-005	0,00000E+000	6,76002E-001	0,00000E+000	9	...........	-32768,00
	579	9,6667	6,78921E-001	8,25776E-005	0,00000E+000	6,79003E-001	0,00000E+000	9	...........	-32768,00
	582	9,7167	6,81934E-001	8,11906E-005	0,00000E+000	6,82003E-001	0,00000E+000	9	...........	-32768,00
	585	9,7667	6,84927E-001	8,00012E-005	0,00000E+000	6,85003E-001	0,00000E+000	8	...........	-32768,00
	588	9,8167	6,87913E-001	7,88566E-005	0,00000E+000	6,88003E-001	0,00000E+000	8	...........	-32768,00
	591	9,8667	6,90924E-001	7,78395E-005	0,00000E+000	6,91004E-001	0,00000E+000	8	...........	-32768,00
	594	9,9167	6,93952E-001	7,68593E-005	0,00000E+000	6,94004E-001	0,00000E+000	8	...........	-32768,00
	597	9,9667	6,96935E-001	7,60361E-005	0,00000E+000	6,97004E-001	0,00000E+000	8	...........	-32768,00
	600	10,0167	6,99935E-001	7,52684E-005	0,00000E+000	7,00004E-001	0,00000E+000	8	...........	-32768,00
	603	10,0667	7,02929E-001	7,45200E-005	0,00000E+000	7,03005E-001	0,00000E+000	8	...........	-32768,00
	606	10,1167	7,05936E-001	7,38535E-005	0,00000E+000	7,06005E-001	0,00000E+000	8	...........	-32768,00
	609	10,1667	7,08945E-001	7,32405E-005	0,00000E+000	7,09005E-001	0,00000E+000	8	...........	-32768,00
	612	10,2167	7,11937E-001	7,26711E-005	0,00000E+000	7,12005E-001	0,00000E+000	8	...........	-32768,00
	615	10,2667	7,14929E-001	7,21155E-005	0,00000E+000	7,15006E-001	0,00000E+000	8	...........	-32768,00
	618	10,3167	7,17939E-001	7,16288E-005	0,00000E+000	7,18006E-001	0,00000E+000	8	...........	-32768,00
	621	10,3667	7,20951E-001	7,11058E-005	0,00000E+000	7,21006E-001	0,00000E+000	8	...........	-32768,00
	624	10,4167	7,23952E-001	7,07257E-005	0,00000E+000	7,24006E-001	0,00000E+000	8	...........	-32768,00
	627	10,4667	7,26915E-001	7,02891E-005	0,00000E+000	7,26994E-001	0,00000E+000	8	...........	-32768,00
	630	10,5167	7,29923E-001	6,99570E-005	0,00000E+000	7,29994E-001	0,00000E+000	8	...........	-32768,00
	633	10,5667	7,32940E-001	6,95269E-005	0,00000E+000	7,32994E-001	0,00000E+000	8	...........	-32768,00
	636	10,6167	7,35938E-001	6,91999E-005	0,00000E+000	7,35995E-001	0,00000E+000	8	...........	-32768,00
	639	10,6667	7,38949E-001	6,88665E-005	0,00000E+000	7,38995E-001	0,00000E+000	8	...........	-32768,00
	642	10,7167	7,41935E-001	6,85353E-005	0,00000E+000	7,41995E-001	0,00000E+000	8	...........	-32768,00
	645	10,7667	7,44948E-001	6,82449E-005	0,00000E+000	7,44995E-001	0,00000E+000	8	...........	-32768,00
	648	10,8167	7,47941E-001	6,79755E-005	0,00000E+000	7,47996E-001	0,00000E+000	8	...........	-32768,00
	651	10,8667	7,50928E-001	6,77659E-005	0,00000E+000	7,50996E-001	0,00000E+000	8	...........	-32768,00
	654	10,9167	7,53942E-001	6,75784E-005	0,00000E+000	7,53996E-001	0,00000E+000	8	...........	-32768,00
	657	10,9667	7,56960E-001	6,72818E-005	0,00000E+000	7,56996E-001	0,00000E+000	8	...........	-32768,00
	660	11,0167	7,59944E-001	6,70825E-005	0,00000E+000	7,59997E-001	0,00000E+000	8	...........	-32768,00
	663	11,0667	7,62944E-001	6,68960E-005	0,00000E+000	7,62997E-001	0,00000E+000	8	...........	-32768,00
	666	11,1167	7,65942E-001	6,66976E-005	0,00000E+000	7,65997E-001	0,00000E+000	8	...........	-32768,00
	669	11,1667	7,68931E-001	6,64904E-005	0,00000E+000	7,68997E-001	0,00000E+000	8	...........	-32768,00
	672	11,2167	7,71957E-001	6,63190E-005	0,00000E+000	7,71998E-001	0,00000E+000	8	...........	-32768,00
	675	11,2667	7,74961E-001	6,61403E-005	0,00000E+000	7,74998E-001	0,00000E+000	8	...........	-32768,00
	678	11,3167	7,77957E-001	6,60314E-005	0,00000E+000	7,77998E-001	0,00000E+000	8	...........	-32768,00
	681	11,3667	7,80953E-001	6,57798E-005	0,00000E+000	7,80998E-001	0,00000E+000	8	...........	-32768,00
	684	11,4167	7,83952E-001	6,55984E-005	0,00000E+000	7,83999E-001	0,00000E+000	8	...........	-32768,00
	687	11,4667	7,86951E-001	6,54551E-005	0,00000E+000	7,86999E-001	0,00000E+000	8	...........	-32768,00
	690	11,5167	7,89952E-001	6,53966E-005	0,00000E+000	7,89999E-001	0,00000E+000	8	...........	-32768,00
	693	11,5667	7,92961E-001	6,52557E-005	0,00000E+000	7,92999E-001	0,00000E+000	8	...........	-32768,00
	696	11,6167	7,95971E-001	6,50984E-005	0,00000E+000	7,96000E-001	0,00000E+000	8	...........	-32768,00
	699	11,6667	7,98964E-001	6,50091E-005	0,00000E+000	7,99000E-001	0,00000E+000	8	...........	-32768,00
	702	11,7167	7,97988E-001	6,35711E-005	0,00000E+000	7,98000E-001	0,00000E+000	8	...........	-32768,00
	705	11,7667	7,94980E-001	6,17275E-005	0,00000E+000	7,94999E-001	0,00000E+000	8	...........	-32768,00
	708	11,8167	7,91963E-001	6,00419E-005	0,00000E+000	7,91999E-001	0,00000E+000	8	...........	-32768,00
	711	11,8667	7,88952E-001	5,84603E-005	0,00000E+000	7,88999E-001	0,00000E+000	8	...........	-32768,00
	714	11,9167	7,85977E-001	5,69548E-005	0,00000E+000	7,85999E-001	0,00000E+000	8	...........	-32768,00
	717	11,9667	7,82969E-001	5,55209E-005	0,00000E+000	7,82998E-001	0,00000E+000	8	...........	-32768,00
	720	12,0167	7,79959E-001	5,41323E-005	0,00000E+000	7,79998E-001	0,00000E+000	8	...........	-32768,00
	723	12,0667	7,76951E-001	5,28293E-005	0,00000E+000	7,76998E-001	0,00000E+000	8	...........	-32768,00
	726	12,1167	7,73961E-001	5,16115E-005	0,00000E+000	7,73998E-001	0,00000E+000	8	...........	-32768,00
	729	12,1667	7,70971E-001	5,03992E-005	0,00000E+000	7,70998E-001	0,00000E+000	8	...........	-32768,00
	732	12,2167	7,67931E-001	4,92726E-005	0,00000E+000	7,67997E-001	0,00000E+000	8	...........	-32768,00
	735	12,2667	7,64946E-001	4,81820E-005	0,00000E+000	7,64997E-001	0,00000E+000	8	...........	-32768,00
	738	12,3167	7,61948E-001	4,71037E-005	0,00000E+000	7,61997E-001	0,00000E+000	8	...........	-32768,00
	741	12,3667	7,58941E-001	4,61013E-005	0,00000E+000	7,58997E-001	0,00000E+000	8	...........	-32768,00
	744	12,4167	7,55944E-001	4,51543E-005	0,00000E+000	7,55996E-001	0,00000E+000	8	...........	-32768,00
	747	12,4667	7,52936E-001	4,41751E-005	0,00000E+000	7,52996E-001	0,00000E+000	8	...........	-32768,00
	750	12,5167	7,49956E-001	4,32447E-005	0,00000E+000	7,49996E-001	0,00000E+000	8	...........	-32768,00
	753	12,5667	7,46955E-001	4,23655E-005	0,00000E+000	7,46996E-001	0,00000E+000	8	...........	-32768,00
	756	12,6167	7,43953E-001	4,15227E-005	0,00000E+000	7,43995E-001	0,00000E+000	8	...........	-32768,00
	759	12,6667	7,40945E-001	4,06838E-005	0,00000E+000	7,40995E-001	0,00000E+000	8	...........	-32768,00
	762	12,7167	7,37949E-001	3,98710E-005	0,00000E+000	7,37995E-001	0,00000E+000	8	...........	-32768,00
	765	12,7667	7,34947E-001	3,91113E-005	0,00000E+000	7,34995E-001	0,00000E+000	8	...........	-32768,00
	768	12,8167	7,31943E-001	3,83218E-005	0,00000E+000	7,31994E-001	0,00000E+000	8	...........	-32768,00
	771	12,8667	7,28932E-001	3,75901E-005	0,00000E+000	7,28994E-001	0,00000E+000	8	...........	-32768,00
	774	12,9167	7,25939E-001	3,68736E-005	0,00000E+000	7,25994E-001	0,00000E+000	8	...........	-32768,00
	777	12,9667	7,22966E-001	3,61913E-005	0,00000E+000	7,23006E-001	0,00000E+000	8	...........	-32768,00
	780	13,0167	7,19958E-001	3,54994E-005	0,00000E+000	7,20006E-001	0,00000E+000	8	...........	-32768,00
	783	13,0667	7,16924E-001	3,48515E-005	0,00000E+000	7,17006E-001	0,00000E+000	8	...........	-32768,00
	786	13,1167	7,13930E-001	3,42584E-005	0,00000E+000	7,14005E-001	0,00000E+000	8	...........	-32768,00
	789	13,1667	7,10949E-001	3,35942E-005	0,00000E+000	7,11005E-001	0,00000E+000	8	...........	-32768,00
	792	13,2167	7,07935E-001	3,29762E-005	0,00000E+000	7,08005E-001	0,00000E+000	8	...........	-32768,00
	795	13,2667	7,04927E-001	3,23470E-005	0,00000E+000	7,05005E-001	0,00000E+000	8	...........	-32768,00
	798	13,3167	7,01925E-001	3,17630E-005	0,00000E+000	7,02004E-001	0,00000E+000	8	...........	-32768,00
	801	13,3667	6,98952E-001	3,11901E-005	0,00000E+000	6,99004E-001	0,00000E+000	8	...........	-32768,00
	804	13,4167	6,95956E-001	3,06134E-005	0,00000E+000	6,96004E-001	0,00000E+000	8	...........	-32768,00
	807	13,4667	6,92942E-001	3,00748E-005	0,00000E+000	6,93004E-001	0,00000E+000	8	...........	-32768,00
	810	13,5167	6,89928E-001	2,95393E-005	0,00000E+000	6,90004E-001	0,00000E+000	8	...........	-32768,00
	813	13,5667	6,86928E-001	2,90048E-005	0,00000E+000	6,87003E-001	0,00000E+000	8	...........	-32768,00
	816	13,6167	6,83931E-001	2,84873E-005	0,00000E+000	6,84003E-001	0,00000E+000	8	...........	-32768,00
	819	13,6667	6,80941E-001	2,79847E-005	0,00000E+000	6,81003E-001	0,00000E+000	8	...........	-32768,00
	822	13,7167	6,77929E-001	2,74786E-005	0,00000E+000	6,78003E-001	0,00000E+000	8	...........	-32768,00
	825	13,7667	6,74922E-001	2,69989E-005	0,00000E+000	6,75002E-001	0,00000E+000	8	...........	-32768,00
	828	13,8167	6,71916E-001	2,65203E-005	0,00000E+000	6,72002E-001	0,00000E+000	8	...........	-32768,00
	831	13,8667	6,68922E-001	2,60483E-005	0,00000E+000	6,69002E-001	0,00000E+000	8	...........	-32768,00
	834	13,9167	6,65901E-001	2,55827E-005	0,00000E+000	6,66002E-001	0,00000E+000	8	...........	-32768,00
	837	13,9667	6,62913E-001	2,51205E-005	0,00000E+000	6,63001E-001	0,00000E+000	8	...........	-32768,00
	840	14,0167	6,59902E-001	2,46729E-005	0,00000E+000	6,60001E-001	0,00000E+000	8	...........	-32768,00
	843	14,0667	6,56912E-001	2,42274E-005	0,00000E+000	6,57001E-001	0,00000E+000	8	...........	-32768,00
	846	14,1167	6,53928E-001	2,37911E-005	0,00000E+000	6,54001E-001	0,00000E+000	8	...........	-32768,00
	849	14,1667	6,50894E-001	2,33670E-005	0,00000E+000	6,51000E-001	0,00000E+000	8	...........	-32768,00
	852	14,2167	6,47918E-001	2,29496E-005	0,00000E+000	6,48000E-001	0,00000E+000	8	...........	-32768,00
	855	14,2667	6,44908E-001	2,25386E-005	0,00000E+000	6,45000E-001	0,00000E+000	8	...........	-32768,00
	858	14,3167	6,41925E-001	2,21213E-005	0,00000E+000	6,42000E-001	0,00000E+000	8	...........	-32768,00
	861	14,3667	6,38904E-001	2,17183E-005	0,00000E+000	6,38999E-001	0,00000E+000	8	...........	-32768,00
	864	14,4167	6,35915E-001	2,13159E-005	0,00000E+000	6,35999E-001	0,00000E+000	8	...........	-32768,00
	867	14,4667	6,32918E-001	2,09186E-005	0,00000E+000	6,32999E-001	0,00000E+000	8	...........	-32768,00
	870	14,5167	6,29912E-001	2,05377E-005	0,00000E+000	6,29999E-001	0,00000E+000	8	...........	-32768,00
	873	14,5667	6,26896E-001	2,01460E-005	0,00000E+000	6,26998E-001	0,00000E+000	8	...........	-32768,00
	876	14,6167	6,23891E-001	1,97674E-005	0,00000E+000	6,23998E-001	0,00000E+000	8	...........	-32768,00
	879	14,6667	6,20898E-001	1,93913E-005	0,00000E+000	6,20998E-001	0,00000E+000	8	...........	-32768,00
	882	14,7167	6,17903E-001	1,90142E-005	0,00000E+000	6,17998E-001	0,00000E+000	8	...........	-32768,00
	885	14,7667	6,14881E-001	1,86465E-005	0,00000E+000	6,14998E-001	0,00000E+000	8	...........	-32768,00
	888	14,8167	6,11893E-001	1,82778E-005	0,00000E+000	6,11997E-001	0,00000E+000	8	...........	-32768,00
	891	14,8667	6,08891E-001	1,79111E-005	0,00000E+000	6,08997E-001	0,00000E+000	8	...........	-32768,00
	894	14,9167	6,05915E-001	1,75534E-005	0,00000E+000	6,05997E-001	0,00000E+000	8	...........	-32768,00
	897	14,9667	6,02908E-001	1,71952E-005	0,00000E+000	6,02997E-001	0,00000E+000	8	...........	-32768,00
	900	15,0167	5,99885E-001	1,68448E-005	0,00000E+000	5,99996E-001	0,00000E+000	8	...........	-32768,00
	903	15,0667	5,96905E-001	1,64901E-005	0,00000E+000	5,96996E-001	0,00000E+000	8	...........	-32768,00
	906	15,1167	5,93897E-001	1,61408E-005	0,00000E+000	5,93996E-001	0,00000E+000	8	...........	-32768,00
	909	15,1667	5,90900E-001	1,57863E-005	0,00000E+000	5,90996E-001	0,00000E+000	8	...........	-32768,00
	912	15,2167	5,87882E-001	1,54406E-005	0,00000E+000	5,87995E-001	0,00000E+000	8	...........	-32768,00
	915	15,2667	5,84885E-001	1,50966E-005	0,00000E+000	5,84995E-001	0,00000E+000	8	...........	-32768,00
	918	15,3167	5,81885E-001	1,47519E-005	0,00000E+000	5,81995E-001	0,00000E+000	8	...........	-32768,00
	921	15,3667	5,78895E-001	1,44009E-005	0,00000E+000	5,78995E-001	0,00000E+000	8	...........	-32768,00
	924	15,4167	5,75873E-001	1,40600E-005	0,00000E+000	5,75994E-001	0,00000E+000	8	...........	-32768,00
	927	15,4667	5,72870E-001	1,37195E-005	0,00000E+000	5,72994E-001	0,00000E+000	8	...........	-32768,00
	930	15,5167	5,69867E-001	1,33793E-005	0,00000E+000	5,69994E-001	0,00000E+000	8	...........	-32768,00
	933	15,5667	5,66896E-001	1,30395E-005	0,00000E+000	5,67006E-001	0,00000E+000	8	...........	-32768,00
	936	15,6167	5,63884E-001	1,27010E-005	0,00000E+000	5,64006E-001	0,00000E+000	8	...........	-32768,00
	939	15,6667	5,60880E-001	1,23611E-005	0,00000E+000	5,61006E-001	0,00000E+000	8	...........	-32768,00
	942	15,7167	5,57890E-001	1,20304E-005	0,00000E+000	5,58005E-001	0,00000E+000	8	...........	-32768,00
	945	15,7667	5,54887E-001	1,17006E-005	0,00000E+000	5,55005E-001	0,00000E+000	8	...........	-32768,00
	948	15,8167	5,51911E-001	1,13709E-005	0,00000E+000	5,52005E-001	0,00000E+000	8	...........	-32768,00
	951	15,8667	5,48884E-001	1,10478E-005	0,00000E+000	5,49005E-001	0,00000E+000	8	...........	-32768,00
	954	15,9167	5,45892E-001	1,07223E-005	0,00000E+000	5,46004E-001	0,00000E+000	8	...........	-32768,00
	957	15,9667	5,42893E-001	1,04073E-005	0,00000E+000	5,43004E-001	0,00000E+000	8	...........	-32768,00
	960	16,0167	5,39888E-001	1,01033E-005	0,00000E+000	5,40004E-001	0,00000E+000	8	...........	-32768,00
	963	16,0667	5,36879E-001	9,80356E-006	0,00000E+000	5,37004E-001	0,00000E+000	8	...........	-32768,00
	966	16,1167	5,33899E-001	9,51160E-006	0,00000E+000	5,34003E-001	0,00000E+000	8	...........	-32768,00
	969	16,1667	5,30876E-001	9,23211E-006	0,00000E+000	5,31003E-001	0,00000E+000	8	...........	-32768,00
	972	16,2167	5,27893E-001	8,95763E-006	0,00000E+000	5,28003E-001	0,00000E+000	8	...........	-32768,00
	975	16,2667	5,24868E-001	8,68859E-006	0,00000E+000	5,25003E-001	0,00000E+000	8	...........	-32768,00
	978	16,3167	5,21879E-001	8,42973E-006	0,00000E+000	5,22003E-001	0,00000E+000	8	...........	-32768,00
	981	16,3667	5,18871E-001	8,17348E-006	0,00000E+000	5,19002E-001	0,00000E+000	8	...........	-32768,00
	984	16,4167	5,15875E-001	7,92284E-006	0,00000E+000	5,16002E-001	0,00000E+000	7	...........	-32768,00
	987	16,4667	5,12870E-001	7,67865E-006	0,00000E+000	5,13002E-001	0,00000E+000	7	...........	-32768,00
	990	16,5167	5,09849E-001	7,43625E-006	0,00000E+000	5,10002E-001	0,00000E+000	7	...........	-32768,00
	993	16,5667	5,06862E-001	7,19805E-006	0,00000E+000	5,07001E-001	0,00000E+000	7	...........	-32768,00
	996	16,6167	5,03860E-001	6,95529E-006	0,00000E+000	5,04001E-001	0,00000E+000	7	...........	-32768,00
	999	16,6667	5,00874E-001	6,71708E-006	0,00000E+000	5,01001E-001	0,00000E+000	7	...........	-32768,00
	1002	16,7167	4,97852E-001	6,47320E-006	0,00000E+000	4,98001E-001	0,00000E+000	7	...........	-32768,00
	1005	16,7667	4,94857E-001	6,22968E-006	0,00000E+000	4,95000E-001	0,00000E+000	7	...........	-32768,00
	1008	16,8167	4,91873E-001	5,98519E-006	0,00000E+000	4,92000E-001	0,00000E+000	7	...........	-32768,00
	1011	16,8667	4,88872E-001	5,73721E-006	0,00000E+000	4,89000E-001	0,00000E+000	7	...........	-32768,00
	1014	16,9167	4,85844E-001	5,48326E-006	0,00000E+000	4,86000E-001	0,00000E+000	7	...........	-32768,00
	1017	16,9667	4,82850E-001	5,22789E-006	0,00000E+000	4,82999E-001	0,00000E+000	7	...........	-32768,00
	1020	17,0167	4,79868E-001	4,96535E-006	0,00000E+000	4,79999E-001	0,00000E+000	7	...........	-32768,00
	1023	17,0667	4,76865E-001	4,69982E-006	0,00000E+000	4,76999E-001	0,00000E+000	7	...........	-32768,00
	1026	17,1167	4,73846E-001	4,42297E-006	0,00000E+000	4,73999E-001	0,00000E+000	7	...........	-32768,00
	1029	17,1667	4,70837E-001	4,14606E-006	0,00000E+000	4,70998E-001	0,00000E+000	7	...........	-32768,00
	1032	17,2167	4,67847E-001	3,85330E-006	0,00000E+000	4,67998E-001	0,00000E+000	7	...........	-32768,00
	1035	17,2667	4,64850E-001	3,55430E-006	0,00000E+000	4,64998E-001	0,00000E+000	7	...........	-32768,00
	1038	17,3167	4,61864E-001	3,23431E-006	0,00000E+000	4,61998E-001	0,00000E+000	7	...........	-32768,00
	1041	17,3667	4,58842E-001	2,88726E-006	0,00000E+000	4,58997E-001	0,00000E+000	7	...........	-32768,00
	1044	17,4167	4,55849E-001	2,49909E-006	0,00000E+000	4,55997E-001	0,00000E+000	7	...........	-32768,00
	1047	17,4667	4,52850E-001	2,00660E-006	0,00000E+000	4,52997E-001	0,00000E+000	7	...........	-32768,00
	1050	17,5167	4,49852E-001	1,37027E-006	0,00000E+000	4,49997E-001	0,00000E+000	7	...........	-32768,00
	1053	17,5667	4,46854E-001	4,95490E-007	0,00000E+000	4,46997E-001	0,00000E+000	7	...........	-32768,00
	1056	17,6167	4,43850E-001	-7,18589E-007	0,00000E+000	4,43996E-001	0,00000E+000	7	...........	-32768,00
	1059	17,6667	4,40870E-001	-2,43352E-006	0,00000E+000	4,40996E-001	0,00000E+000	7	...........	-32768,00
	1062	17,7167	4,37870E-001	-4,79933E-006	0,00000E+000	4,37996E-001	0,00000E+000	7	...........	-32768,00
	1065	17,7667	4,34851E-001	-7,97225E-006	0,00000E+000	4,34996E-001	0,00000E+000	7	...........	-32768,00
	1068	17,8167	4,31839E-001	-1,21148E-005	0,00000E+000	4,31995E-001	0,00000E+000	8	...........	-32768,00
	1071	17,8667	4,28847E-001	-1,73059E-005	0,00000E+000	4,28995E-001	0,00000E+000	8	...........	-32768,00
	1074	17,9167	4,25853E-001	-2,36257E-005	0,00000E+000	4,25995E-001	0,00000E+000	8	...........	-32768,00
	1077	17,9667	4,22840E-001	-3,11337E-005	0,00000E+000	4,22995E-001	0,00000E+000	8	...........	-32768,00
	1080	18,0167	4,19841E-001	-3,98127E-005	0,00000E+000	4,19994E-001	0,00000E+000	8	...........	-32768,00
	1083	18,0667	4,16861E-001	-4,95765E-005	0,00000E+000	4,16994E-001	0,00000E+000	8	...........	-32768,00
	1086	18,1167	4,13843E-001	-6,03159E-005	0,00000E+000	4,13994E-001	0,00000E+000	8	...........	-32768,00
	1089	18,1667	4,10877E-001	-7,18016E-005	0,00000E+000	4,11006E-001	0,00000E+000	8	...........	-32768,00
	1092	18,2167	4,07876E-001	-8,38210E-005	0,00000E+000	4,08006E-001	0,00000E+000	8	...........	-32768,00
	1095	18,2667	4,04853E-001	-9,61440E-005	0,00000E+000	4,05006E-001	0,00000E+000	9	...........	-32768,00
	1098	18,3167	4,01879E-001	-1,08439E-004	0,00000E+000	4,02005E-001	0,00000E+000	9	...........	-32768,00
	1101	18,3667	3,98859E-001	-1,20481E-004	0,00000E+000	3,99005E-001	0,00000E+000	9	...........	-32768,00
	1104	18,4167	3,95858E-001	-1,31930E-004	0,00000E+000	3,96005E-001	0,00000E+000	9	...........	-32768,00
	1107	18,4667	3,92863E-001	-1,42589E-004	0,00000E+000	3,93005E-001	0,00000E+000	9	...........	-32768,00
	1110	18,5167	3,89865E-001	-1,52284E-004	0,00000E+000	3,90004E-001	0,00000E+000	9	...........	-32768,00
	1113	18,5667	3,86870E-001	-1,60853E-004	0,00000E+000	3,87004E-001	0,00000E+000	9	...........	-32768,00
	1116	18,6167	3,83862E-001	-1,68298E-004	0,00000E+000	3,84004E-001	0,00000E+000	9	...........	-32768,00
	1119	18,6667	3,80845E-001	-1,74569E-004	0,00000E+000	3,81004E-001	0,00000E+000	9	...........	-32768,00
	1122	18,7167	3,77865E-001	-1,79694E-004	0,00000E+000	3,78003E-001	0,00000E+000	9	...........	-32768,00
	1125	18,7667	3,74860E-001	-1,83714E-004	0,00000E+000	3,75003E-001	0,00000E+000	9	...........	-32768,00
	1128	18,8167	3,71843E-001	-1,86665E-004	0,00000E+000	3,72003E-001	0,00000E+000	9	...........	-32768,00
	1131	18,8667	3,68847E-001	-1,88698E-004	0,00000E+000	3,69003E-001	0,00000E+000	9	...........	-32768,00
	1134	18,9167	3,65836E-001	-1,89802E-004	0,00000E+000	3,66003E-001	0,00000E+000	9	...........	-32768,00
	1137	18,9667	3,62863E-001	-1,90138E-004	0,00000E+000	3,63002E-001	0,00000E+000	9	...........	-32768,00
	1140	19,0167	3,59860E-001	-1,89802E-004	0,00000E+000	3,60002E-001	0,00000E+000	9	...........	-32768,00
	1143	19,0667	3,56835E-001	-1,88846E-004	0,00000E+000	3,57002E-001	0,00000E+000	9	...........	-32768,00
	1146	19,1167	3,53844E-001	-1,87355E-004	0,00000E+000	3,54002E-001	0,00000E+000	9	...........	-32768,00
	1149	19,1667	3,50841E-001	-1,85458E-004	0,00000E+000	3,51001E-001	0,00000E+000	9	...........	-32768,00
	1152	19,2167	3,47850E-001	-1,83190E-004	0,00000E+000	3,48001E-001	0,00000E+000	9	...........	-32768,00
	1155	19,2667	3,44832E-001	-1,80650E-004	0,00000E+000	3,45001E-001	0,00000E+000	9	...........	-32768,00
	1158	19,3167	3,41842E-001	-1,77842E-004	0,00000E+000	3,42001E-001	0,00000E+000	9	...........	-32768,00
	1161	19,3667	3,38845E-001	-1,74870E-004	0,00000E+000	3,39000E-001	0,00000E+000	9	...........	-32768,00
	1164	19,4167	3,35846E-001	-1,71767E-004	0,00000E+000	3,36000E-001	0,00000E+000	9	...........	-32768,00
	1167	19,4667	3,32842E-001	-1,68619E-004	0,00000E+000	3,33000E-001	0,00000E+000	9	...........	-32768,00
	1170	19,5167	3,29837E-001	-1,65372E-004	0,00000E+000	3,30000E-001	0,00000E+000	9	...........	-32768,00
	1173	19,5667	3,26830E-001	-1,62103E-004	0,00000E+000	3,26999E-001	0,00000E+000	9	...........	-32768,00
	1176	19,6167	3,23855E-001	-1,58853E-004	0,00000E+000	3,23999E-001	0,00000E+000	9	...........	-32768,00
	1179	19,6667	3,20851E-001	-1,55617E-004	0,00000E+000	3,20999E-001	0,00000E+000	9	...........	-32768,00
	1182	19,7167	3,17838E-001	-1,52434E-004	0,00000E+000	3,17999E-001	0,00000E+000	9	...........	-32768,00
	1185	19,7667	3,14829E-001	-1,49314E-004	0,00000E+000	3,14998E-001	0,00000E+000	9	...........	-32768,00
	1188	19,8167	3,11839E-001	-1,46229E-004	0,00000E+000	3,11998E-001	0,00000E+000	9	...........	-32768,00
	1191	19,8667	3,08831E-001	-1,43285E-004	0,00000E+000	3,08998E-001	0,00000E+000	9	...........	-32768,00
	1194	19,9167	3,05822E-001	-1,40398E-004	0,00000E+000	3,05998E-001	0,00000E+000	9	...........	-32768,00
	1197	19,9667	3,02832E-001	-1,37599E-004	0,00000E+000	3,02997E-001	0,00000E+000	9	...........	-32768,00
	1200	20,0167	2,99819E-001	-1,34895E-004	0,00000E+000	2,99997E-001	0,00000E+000	9	...........	-32768,00
	1203	20,0667	2,96848E-001	-1,32286E-004	0,00000E+000	2,96997E-001	0,00000E+000	9	...........	-32768,00
	1206	20,1167	2,93820E-001	-1,29760E-004	0,00000E+000	2,93997E-001	0,00000E+000	9	...........	-32768,00
	1209	20,1667	2,90819E-001	-1,27321E-004	0,00000E+000	2,90996E-001	0,00000E+000	9	...........	-32768,00
	1212	20,2167	2,87845E-001	-1,24944E-004	0,00000E+000	2,87996E-001	0,00000E+000	9	...........	-32768,00
	1215	20,2667	2,84826E-001	-1,22709E-004	0,00000E+000	2,84996E-001	0,00000E+000	9	...........	-32768,00
	1218	20,3167	2,81809E-001	-1,20551E-004	0,00000E+000	2,81996E-001	0,00000E+000	9	...........	-32768,00
	1221	20,3667	2,78819E-001	-1,18483E-004	0,00000E+000	2,78996E-001	0,00000E+000	9	...........	-32768,00
	1224	20,4167	2,75817E-001	-1,16488E-004	0,00000E+000	2,75995E-001	0,00000E+000	9	...........	-32768,00
	1227	20,4667	2,72835E-001	-1,14599E-004	0,00000E+000	2,72995E-001	0,00000E+000	9	...........	-32768,00
	1230	20,5167	2,69840E-001	-1,12795E-004	0,00000E+000	2,69995E-001	0,00000E+000	9	...........	-32768,00
	1233	20,5667	2,66805E-001	-1,10971E-004	0,00000E+000	2,66995E-001	0,00000E+000	9	...........	-32768,00
	1236	20,6167	2,63825E-001	-1,09252E-004	0,00000E+000	2,63994E-001	0,00000E+000	9	...........	-32768,00
	1239	20,6667	2,60818E-001	-1,07573E-004	0,00000E+000	2,60994E-001	0,00000E+000	9	...........	-32768,00
	1242	20,7167	2,57822E-001	-1,06113E-004	0,00000E+000	2,57994E-001	0,00000E+000	9	...........	-32768,00
	1245	20,7667	2,54806E-001	-1,04610E-004	0,00000E+000	2,55006E-001	0,00000E+000	9	...........	-32768,00
	1248	20,8167	2,51814E-001	-1,03197E-004	0,00000E+000	2,52006E-001	0,00000E+000	9	...........	-32768,00
	1251	20,8667	2,48828E-001	-1,01757E-004	0,00000E+000	2,49006E-001	0,00000E+000	9	...........	-32768,00
	1254	20,9167	2,45821E-001	-1,00380E-004	0,00000E+000	2,46005E-001	0,00000E+000	9	...........	-32768,00
	1257	20,9667	2,42801E-001	-9,91044E-005	0,00000E+000	2,43005E-001	0,00000E+000	9	...........	-32768,00
	1260	21,0167	2,39793E-001	-9,78177E-005	0,00000E+000	2,40005E-001	0,00000E+000	9	...........	-32768,00
	1263	21,0667	2,36804E-001	-9,66114E-005	0,00000E+000	2,37005E-001	0,00000E+000	9	...........	-32768,00
	1266	21,1167	2,33813E-001	-9,54921E-005	0,00000E+000	2,34004E-001	0,00000E+000	9	...........	-32768,00
	1269	21,1667	2,30817E-001	-9,43572E-005	0,00000E+000	2,31004E-001	0,00000E+000	9	...........	-32768,00
	1272	21,2167	2,27805E-001	-9,33060E-005	0,00000E+000	2,28004E-001	0,00000E+000	9	...........	-32768,00
	1275	21,2667	2,24803E-001	-9,22929E-005	0,00000E+000	2,25004E-001	0,00000E+000	9	...........	-32768,00
	1278	21,3167	2,21816E-001	-9,13135E-005	0,00000E+000	2,22003E-001	0,00000E+000	9	...........	-32768,00
	1281	21,3667	2,18822E-001	-9,03949E-005	0,00000E+000	2,19003E-001	0,00000E+000	9	...........	-32768,00
	1284	21,4167	2,15805E-001	-8,95247E-005	0,00000E+000	2,16003E-001	0,00000E+000	9	...........	-32768,00
	1287	21,4667	2,12798E-001	-8,86800E-005	0,00000E+000	2,13003E-001	0,00000E+000	9	...........	-32768,00
	1290	21,5167	2,09819E-001	-8,78985E-005	0,00000E+000	2,10003E-001	0,00000E+000	9	...........	-32768,00
	1293	21,5667	2,06822E-001	-8,71643E-005	0,00000E+000	2,07002E-001	0,00000E+000	9	...........	-32768,00
	1296	21,6167	2,03805E-001	-8,64455E-005	0,00000E+000	2,04002E-001	0,00000E+000	9	...........	-32768,00
	1299	21,6667	2,00810E-001	-8,57667E-005	0,00000E+000	2,01002E-001	0,00000E+000	9	...........	-32768,00
	1302	21,7167	1,97799E-001	-8,51099E-005	0,00000E+000	1,98002E-001	0,00000E+000	9	...........	-32768,00
	1305	21,7667	1,94803E-001	-8,45006E-005	0,00000E+000	1,95001E-001	0,00000E+000	9	...........	-32768,00
	1308	21,8167	1,91800E-001	-8,38845E-005	0,00000E+000	1,92001E-001	0,00000E+000	9	...........	-32768,00
	1311	21,8667	1,88801E-001	-8,33124E-005	0,00000E+000	1,89001E-001	0,00000E+000	9	...........	-32768,00
	1314	21,9167	1,85805E-001	-8,27401E-005	0,00000E+000	1,86001E-001	0,00000E+000	9	...........	-32768,00
	1317	21,9667	1,82797E-001	-8,21946E-005	0,00000E+000	1,83000E-001	0,00000E+000	9	...........	-32768,00
	1320	22,0167	1,79826E-001	-8,16118E-005	0,00000E+000	1,80000E-001	0,00000E+000	9	...........	-32768,00
	1323	22,0667	1,76807E-001	-8,10732E-005	0,00000E+000	1,77000E-001	0,00000E+000	9	...........	-32768,00
	1326	22,1167	1,73823E-001	-8,05738E-005	0,00000E+000	1,74000E-001	0,00000E+000	8	...........	-32768,00
	1329	22,1667	1,70815E-001	-8,00358E-005	0,00000E+000	1,70999E-001	0,00000E+000	8	...........	-32768,00
	1332	22,2167	1,67826E-001	-7,94592E-005	0,00000E+000	1,67999E-001	0,00000E+000	8	...........	-32768,00
	1335	22,2667	1,64803E-001	-7,89708E-005	0,00000E+000	1,64999E-001	0,00000E+000	8	...........	-32768,00
	1338	22,3167	1,61801E-001	-7,84224E-005	0,00000E+000	1,61999E-001	0,00000E+000	8	...........	-32768,00
	1341	22,3667	1,58799E-001	-7,79226E-005	0,00000E+000	1,58998E-001	0,00000E+000	8	...........	-32768,00
	1344	22,4167	1,55802E-001	-7,73905E-005	0,00000E+000	1,55998E-001	0,00000E+000	8	...........	-32768,00
	1347	22,4667	1,52789E-001	-7,68781E-005	0,00000E+000	1,52998E-001	0,00000E+000	8	...........	-32768,00
	1350	22,5167	1,49797E-001	-7,63942E-005	0,00000E+000	1,49998E-001	0,00000E+000	8	...........	-32768,00
	1353	22,5667	1,46785E-001	-7,58568E-005	0,00000E+000	1,46997E-001	0,00000E+000	8	...........	-32768,00
	1356	22,6167	1,43798E-001	-7,53299E-005	0,00000E+000	1,43997E-001	0,00000E+000	8	...........	-32768,00
	1359	22,6667	1,40795E-001	-7,47864E-005	0,00000E+000	1,40997E-001	0,00000E+000	8	...........	-32768,00
	1362	22,7167	1,37797E-001	-7,43088E-005	0,00000E+000	1,37997E-001	0,00000E+000	8	...........	-32768,00
	1365	22,7667	1,34803E-001	-7,38122E-005	0,00000E+000	1,34997E-001	0,00000E+000	8	...........	-32768,00
	1368	22,8167	1,31804E-001	-7,33150E-005	0,00000E+000	1,31996E-001	0,00000E+000	8	...........	-32768,00
	1371	22,8667	1,28810E-001	-7,27772E-005	0,00000E+000	1,28996E-001	0,00000E+000	8	...........	-32768,00
	1374	22,9167	1,25793E-001	-7,23300E-005	0,00000E+000	1,25996E-001	0,00000E+000	8	...........	-32768,00
	1377	22,9667	1,22803E-001	-7,18485E-005	0,00000E+000	1,22996E-001	0,00000E+000	8	...........	-32768,00
	1380	23,0167	1,19803E-001	-7,14604E-005	0,00000E+000	1,19995E-001	0,00000E+000	8	...........	-32768,00
	1383	23,0667	1,16811E-001	-7,10342E-005	0,00000E+000	1,16995E-001	0,00000E+000	8	...........	-32768,00
	1386	23,1167	1,13784E-001	-7,05914E-005	0,00000E+000	1,13995E-001	0,00000E+000	8	...........	-32768,00
	1389	23,1667	1,10785E-001	-7,01081E-005	0,00000E+000	1,10995E-001	0,00000E+000	8	...........	-32768,00
	1392	23,2167	1,07793E-001	-6,97837E-005	0,00000E+000	1,07994E-001	0,00000E+000	8	...........	-32768,00
	1395	23,2667	1,04790E-001	-6,93666E-005	0,00000E+000	1,04994E-001	0,00000E+000	8	...........	-32768,00
	1398	23,3167	1,01803E-001	-6,89907E-005	0,00000E+000	1,01994E-001	0,00000E+000	8	...........	-32768,00
	1400	23,35	9,98064E-002	-6,87743E-005	0,00000E+000	1,00006E-001	0,00000E+000	8	...........	-32768,00