File: HOPG_cv/3mM/AgNO3_HOPG_3mM_70mv_1_cv.DTA
EXPLAIN
TAG	CV
TITLE	LABEL	Cyclic Voltammetry	Test &Identifier
DATE	LABEL	30/4/2022	Date
TIME	LABEL	16:02:55	Time
NOTES	NOTES	2	&Notes...
	30/04/22 , 5mM  AgNO3

PSTAT	PSTAT	IFC1000-09004	Potentiostat
VINIT	POTEN	1,00000E-001	F	Initial &E (V)
VLIMIT1	POTEN	1,00000E-001	F	Scan Limit &1 (V)
VLIMIT2	POTEN	8,00000E-001	F	Scan Limit &2 (V)
VFINAL	POTEN	1,00000E-001	F	Final &E (V)
SCANRATE	QUANT	7,00115E+001	&Scan Rate (mV/s)
STEPSIZE	QUANT	1,00000E+000	St&ep Size (mV)
CYCLES	IQUANT	1	C&ycles (#)
IMODE	SELECTOR	0	I/E Range &Mode
IRANGE	QUANT	1,00000E-005	&Max Current (mA)
AREA	QUANT	1,00000E+000	Electrode &Area (cm^2)
ELECTRODETYPE	SELECTOR	0	Electrode Type
STRIPPING	TOGGLE	F	Used for Stripping
POLARITY	TOGGLE	F	Signal Polarity
CONDIT	TWOPARAM	F	1,50000E+001	0,00000E+000	Conditionin&g	Time(s)	E(V)
DELAY	TWOPARAM	F	3,00000E+001	0,00000E+000	Init. De&lay	Time(s)	Stab.(mV/s)
EQDELAY	QUANT	1,00000E+001	Equil. &Time (s)
IRCOMP	SELECTOR	0	IRCom&p
PFCOR	QUANT	5,00000E+001	PF Corr. (ohm)
SAMPLINGMODE	SELECTOR	1	Sampling &Mode
EOC	QUANT	0	Open Circuit (V)
PSTATMODEL	IQUANT	48	Pstat Model
PSTATSECTION	LABEL	IFC1000-09004	Pstat Section
PSTATSERIALNO	LABEL	09004	Pstat Serial Number
CTRLMODE	IQUANT	1	Control Mode
ELECTROMETER	IQUANT	0	RE=0 or CS=1
IESTAB	IQUANT	2	I/E Stability
CASPEED	IQUANT	4	Control Amp Speed
CONVENTION	IQUANT	1	Current Convention
ICHRANGE	IQUANT	2	Ich Range
ICHRANGEMODE	TOGGLE	F	Ich Auto Range
ICHOFFSETENABLE	TOGGLE	F	Ich Offset Enable
ICHOFFSET	QUANT	0	Ich Offset (V)
ICHFILTER	IQUANT	3	Ich Filter
VCHRANGE	IQUANT	2	Vch Range
VCHRANGEMODE	TOGGLE	F	Vch Auto Range
VCHOFFSETENABLE	TOGGLE	F	Vch Offset Enable
VCHOFFSET	QUANT	0	Vch Offset (V)
VCHFILTER	IQUANT	3	Vch Filter
IERANGELOWERLIMIT	IQUANT	4	I/E Range Lower Limit
IERANGEMODE	TOGGLE	T	I/E AutoRange
IERANGE	IQUANT	5	I/E Range
ACHSELECT	IQUANT	0	Ach Select
ACHRANGE	IQUANT	2	Ach Range
ACHOFFSETENABLE	TOGGLE	F	Ach Offset Enable
ACHOFFSET	QUANT	0	Ach Offset (V)
ACHFILTER	IQUANT	1	Ach Filter
CABLEID	IQUANT	14	Cable ID
DCCALDATE	LABEL	3/18/2022	DC Calibration Date
ACCALDATE	LABEL	3/10/2016	AC Calibration Date
FRAMEWORKVERSION	QUANT	7,05	Framework Version
INSTRUMENTVERSION	LABEL	4.21	Instrument Version
CURVE1	TABLE
	Pt	T	Vf	Im	Vu	Sig	Ach	IERange	Over	Temp
	#	s	V vs. Ref.	A	V	V	V	#	bits	deg C
	0	0,014283	9,98384E-002	-1,09478E-005	0,00000E+000	1,00006E-001	0,00000E+000	7	....ih..i..	-32768,00
	3	0,057133	1,02790E-001	-3,44669E-005	0,00000E+000	1,02994E-001	0,00000E+000	8	...........	-32768,00
	6	0,099983	1,05796E-001	-3,39249E-005	0,00000E+000	1,05994E-001	0,00000E+000	8	...........	-32768,00
	9	0,142833	1,08793E-001	-3,35088E-005	0,00000E+000	1,08994E-001	0,00000E+000	8	...........	-32768,00
	12	0,185683	1,11785E-001	-3,31418E-005	0,00000E+000	1,11995E-001	0,00000E+000	8	...........	-32768,00
	15	0,228533	1,14782E-001	-3,27273E-005	0,00000E+000	1,14995E-001	0,00000E+000	8	...........	-32768,00
	18	0,271383	1,17815E-001	-3,23876E-005	0,00000E+000	1,17995E-001	0,00000E+000	8	...........	-32768,00
	21	0,314233	1,20797E-001	-3,20504E-005	0,00000E+000	1,20995E-001	0,00000E+000	8	...........	-32768,00
	24	0,357083	1,23794E-001	-3,17624E-005	0,00000E+000	1,23996E-001	0,00000E+000	8	...........	-32768,00
	27	0,399933	1,26801E-001	-3,14582E-005	0,00000E+000	1,26996E-001	0,00000E+000	8	...........	-32768,00
	30	0,442783	1,29812E-001	-3,11820E-005	0,00000E+000	1,29996E-001	0,00000E+000	8	...........	-32768,00
	33	0,485633	1,32802E-001	-3,09059E-005	0,00000E+000	1,32996E-001	0,00000E+000	8	...........	-32768,00
	36	0,528483	1,35800E-001	-3,06066E-005	0,00000E+000	1,35997E-001	0,00000E+000	8	...........	-32768,00
	39	0,571333	1,38795E-001	-3,03793E-005	0,00000E+000	1,38997E-001	0,00000E+000	8	...........	-32768,00
	42	0,614183	1,41812E-001	-3,01431E-005	0,00000E+000	1,41997E-001	0,00000E+000	8	...........	-32768,00
	45	0,657033	1,44804E-001	-2,99584E-005	0,00000E+000	1,44997E-001	0,00000E+000	8	...........	-32768,00
	48	0,699883	1,47799E-001	-2,97598E-005	0,00000E+000	1,47998E-001	0,00000E+000	8	...........	-32768,00
	51	0,742733	1,50769E-001	-2,95415E-005	0,00000E+000	1,50985E-001	0,00000E+000	8	...........	-32768,00
	54	0,785583	1,53792E-001	-2,93054E-005	0,00000E+000	1,53986E-001	0,00000E+000	8	...........	-32768,00
	57	0,828433	1,56784E-001	-2,90684E-005	0,00000E+000	1,56986E-001	0,00000E+000	8	...........	-32768,00
	60	0,871283	1,59783E-001	-2,88887E-005	0,00000E+000	1,59986E-001	0,00000E+000	8	...........	-32768,00
	63	0,914133	1,62790E-001	-2,86809E-005	0,00000E+000	1,62986E-001	0,00000E+000	8	...........	-32768,00
	66	0,95698	1,65792E-001	-2,85196E-005	0,00000E+000	1,65986E-001	0,00000E+000	8	...........	-32768,00
	69	0,99983	1,68826E-001	-2,83190E-005	0,00000E+000	1,68987E-001	0,00000E+000	8	...........	-32768,00
	72	1,04268	1,71803E-001	-2,81614E-005	0,00000E+000	1,71987E-001	0,00000E+000	8	...........	-32768,00
	75	1,08553	1,74787E-001	-2,79816E-005	0,00000E+000	1,74987E-001	0,00000E+000	8	...........	-32768,00
	78	1,12838	1,77784E-001	-2,77604E-005	0,00000E+000	1,77987E-001	0,00000E+000	8	...........	-32768,00
	81	1,17123	1,80821E-001	-2,76562E-005	0,00000E+000	1,80988E-001	0,00000E+000	8	...........	-32768,00
	84	1,21408	1,83806E-001	-2,74450E-005	0,00000E+000	1,83988E-001	0,00000E+000	8	...........	-32768,00
	87	1,25693	1,86805E-001	-2,73484E-005	0,00000E+000	1,86988E-001	0,00000E+000	8	...........	-32768,00
	90	1,29978	1,89802E-001	-2,71934E-005	0,00000E+000	1,89988E-001	0,00000E+000	8	...........	-32768,00
	93	1,34263	1,92822E-001	-2,70569E-005	0,00000E+000	1,92989E-001	0,00000E+000	8	...........	-32768,00
	96	1,38548	1,95815E-001	-2,68844E-005	0,00000E+000	1,95989E-001	0,00000E+000	8	...........	-32768,00
	99	1,42833	1,98803E-001	-2,67070E-005	0,00000E+000	1,98989E-001	0,00000E+000	8	...........	-32768,00
	102	1,47118	2,01791E-001	-2,66180E-005	0,00000E+000	2,01977E-001	0,00000E+000	8	...........	-32768,00
	105	1,51403	2,04790E-001	-2,64175E-005	0,00000E+000	2,04977E-001	0,00000E+000	8	...........	-32768,00
	108	1,55688	2,07802E-001	-2,63427E-005	0,00000E+000	2,07977E-001	0,00000E+000	8	...........	-32768,00
	111	1,59973	2,10792E-001	-2,61947E-005	0,00000E+000	2,10978E-001	0,00000E+000	8	...........	-32768,00
	114	1,64258	2,13788E-001	-2,60810E-005	0,00000E+000	2,13978E-001	0,00000E+000	8	...........	-32768,00
	117	1,68543	2,16786E-001	-2,59473E-005	0,00000E+000	2,16978E-001	0,00000E+000	8	...........	-32768,00
	120	1,72828	2,19803E-001	-2,57627E-005	0,00000E+000	2,19978E-001	0,00000E+000	8	...........	-32768,00
	123	1,77113	2,22807E-001	-2,56822E-005	0,00000E+000	2,22979E-001	0,00000E+000	8	...........	-32768,00
	126	1,81398	2,25792E-001	-2,54945E-005	0,00000E+000	2,25979E-001	0,00000E+000	8	...........	-32768,00
	129	1,85683	2,28793E-001	-2,54104E-005	0,00000E+000	2,28979E-001	0,00000E+000	8	...........	-32768,00
	132	1,89968	2,31814E-001	-2,52360E-005	0,00000E+000	2,31979E-001	0,00000E+000	8	...........	-32768,00
	135	1,94253	2,34814E-001	-2,51058E-005	0,00000E+000	2,34980E-001	0,00000E+000	8	...........	-32768,00
	138	1,98538	2,37810E-001	-2,49949E-005	0,00000E+000	2,37980E-001	0,00000E+000	8	...........	-32768,00
	141	2,02823	2,40800E-001	-2,48386E-005	0,00000E+000	2,40980E-001	0,00000E+000	8	...........	-32768,00
	144	2,07108	2,43826E-001	-2,47550E-005	0,00000E+000	2,43980E-001	0,00000E+000	8	...........	-32768,00
	147	2,11393	2,46784E-001	-2,45848E-005	0,00000E+000	2,46980E-001	0,00000E+000	8	...........	-32768,00
	150	2,15678	2,49798E-001	-2,44986E-005	0,00000E+000	2,49981E-001	0,00000E+000	8	...........	-32768,00
	153	2,19963	2,52778E-001	-2,43801E-005	0,00000E+000	2,52968E-001	0,00000E+000	8	...........	-32768,00
	156	2,24248	2,55780E-001	-2,42427E-005	0,00000E+000	2,55969E-001	0,00000E+000	8	...........	-32768,00
	159	2,28533	2,58803E-001	-2,41430E-005	0,00000E+000	2,58969E-001	0,00000E+000	8	...........	-32768,00
	162	2,32818	2,61795E-001	-2,39680E-005	0,00000E+000	2,61969E-001	0,00000E+000	8	...........	-32768,00
	165	2,37103	2,64788E-001	-2,38740E-005	0,00000E+000	2,64969E-001	0,00000E+000	8	...........	-32768,00
	168	2,41388	2,67783E-001	-2,37109E-005	0,00000E+000	2,67970E-001	0,00000E+000	8	...........	-32768,00
	171	2,45673	2,70792E-001	-2,36155E-005	0,00000E+000	2,70970E-001	0,00000E+000	8	...........	-32768,00
	174	2,49958	2,73803E-001	-2,34767E-005	0,00000E+000	2,73970E-001	0,00000E+000	8	...........	-32768,00
	177	2,54243	2,76790E-001	-2,33323E-005	0,00000E+000	2,76970E-001	0,00000E+000	8	...........	-32768,00
	180	2,58528	2,79797E-001	-2,32066E-005	0,00000E+000	2,79971E-001	0,00000E+000	8	...........	-32768,00
	183	2,62813	2,82821E-001	-2,30177E-005	0,00000E+000	2,82971E-001	0,00000E+000	8	...........	-32768,00
	186	2,67098	2,85808E-001	-2,29221E-005	0,00000E+000	2,85971E-001	0,00000E+000	8	...........	-32768,00
	189	2,71383	2,88792E-001	-2,27397E-005	0,00000E+000	2,88971E-001	0,00000E+000	8	...........	-32768,00
	192	2,75668	2,91789E-001	-2,26181E-005	0,00000E+000	2,91972E-001	0,00000E+000	8	...........	-32768,00
	195	2,79953	2,94774E-001	-2,24463E-005	0,00000E+000	2,94972E-001	0,00000E+000	8	...........	-32768,00
	198	2,84238	2,97798E-001	-2,22843E-005	0,00000E+000	2,97972E-001	0,00000E+000	8	...........	-32768,00
	201	2,88523	3,00798E-001	-2,21269E-005	0,00000E+000	3,00972E-001	0,00000E+000	8	...........	-32768,00
	204	2,92808	3,03795E-001	-2,18995E-005	0,00000E+000	3,03960E-001	0,00000E+000	8	...........	-32768,00
	207	2,97093	3,06785E-001	-2,17466E-005	0,00000E+000	3,06960E-001	0,00000E+000	8	...........	-32768,00
	210	3,01378	3,09803E-001	-2,15157E-005	0,00000E+000	3,09961E-001	0,00000E+000	8	...........	-32768,00
	213	3,05663	3,12806E-001	-2,13602E-005	0,00000E+000	3,12961E-001	0,00000E+000	8	...........	-32768,00
	216	3,09948	3,15792E-001	-2,11342E-005	0,00000E+000	3,15961E-001	0,00000E+000	8	...........	-32768,00
	219	3,14233	3,18782E-001	-2,08695E-005	0,00000E+000	3,18961E-001	0,00000E+000	8	...........	-32768,00
	222	3,18518	3,21816E-001	-2,06557E-005	0,00000E+000	3,21961E-001	0,00000E+000	8	...........	-32768,00
	225	3,22803	3,24800E-001	-2,03420E-005	0,00000E+000	3,24962E-001	0,00000E+000	8	...........	-32768,00
	228	3,27088	3,27808E-001	-2,00926E-005	0,00000E+000	3,27962E-001	0,00000E+000	8	...........	-32768,00
	231	3,31373	3,30798E-001	-1,97570E-005	0,00000E+000	3,30962E-001	0,00000E+000	8	...........	-32768,00
	234	3,35658	3,33812E-001	-1,94605E-005	0,00000E+000	3,33962E-001	0,00000E+000	8	...........	-32768,00
	237	3,39943	3,36807E-001	-1,90841E-005	0,00000E+000	3,36963E-001	0,00000E+000	8	...........	-32768,00
	240	3,44228	3,39805E-001	-1,86006E-005	0,00000E+000	3,39963E-001	0,00000E+000	8	...........	-32768,00
	243	3,48513	3,42808E-001	-1,80703E-005	0,00000E+000	3,42963E-001	0,00000E+000	8	...........	-32768,00
	246	3,52798	3,45795E-001	-1,73977E-005	0,00000E+000	3,45963E-001	0,00000E+000	8	...........	-32768,00
	249	3,57083	3,48800E-001	-1,67771E-005	0,00000E+000	3,48964E-001	0,00000E+000	8	...........	-32768,00
	252	3,61368	3,51803E-001	-1,60741E-005	0,00000E+000	3,51964E-001	0,00000E+000	8	...........	-32768,00
	255	3,65653	3,54779E-001	-1,55019E-005	0,00000E+000	3,54952E-001	0,00000E+000	8	...........	-32768,00
	258	3,69938	3,57776E-001	-1,48885E-005	0,00000E+000	3,57952E-001	0,00000E+000	8	...........	-32768,00
	261	3,74223	3,60806E-001	-1,42277E-005	0,00000E+000	3,60952E-001	0,00000E+000	8	...........	-32768,00
	264	3,78508	3,63795E-001	-1,35782E-005	0,00000E+000	3,63952E-001	0,00000E+000	8	...........	-32768,00
	267	3,82793	3,66792E-001	-1,28240E-005	0,00000E+000	3,66953E-001	0,00000E+000	8	...........	-32768,00
	270	3,87078	3,69796E-001	-1,21256E-005	0,00000E+000	3,69953E-001	0,00000E+000	8	...........	-32768,00
	273	3,91363	3,72818E-001	-1,13016E-005	0,00000E+000	3,72953E-001	0,00000E+000	8	...........	-32768,00
	276	3,95648	3,75801E-001	-1,04909E-005	0,00000E+000	3,75953E-001	0,00000E+000	8	...........	-32768,00
	279	3,99933	3,78797E-001	-9,58724E-006	0,00000E+000	3,78954E-001	0,00000E+000	8	...........	-32768,00
	282	4,04218	3,81799E-001	-8,61311E-006	0,00000E+000	3,81954E-001	0,00000E+000	8	...........	-32768,00
	285	4,08503	3,84822E-001	-7,59556E-006	0,00000E+000	3,84954E-001	0,00000E+000	7	...........	-32768,00
	288	4,12788	3,87820E-001	-6,44655E-006	0,00000E+000	3,87954E-001	0,00000E+000	7	...........	-32768,00
	291	4,17073	3,90814E-001	-5,33404E-006	0,00000E+000	3,90955E-001	0,00000E+000	7	...........	-32768,00
	294	4,21358	3,93809E-001	-4,03268E-006	0,00000E+000	3,93955E-001	0,00000E+000	7	...........	-32768,00
	297	4,25643	3,96810E-001	-2,80421E-006	0,00000E+000	3,96955E-001	0,00000E+000	7	...........	-32768,00
	300	4,29928	3,99811E-001	-1,43742E-006	0,00000E+000	3,99955E-001	0,00000E+000	7	...........	-32768,00
	303	4,34213	4,02825E-001	-2,84960E-008	0,00000E+000	4,02955E-001	0,00000E+000	7	...........	-32768,00
	306	4,38498	4,05801E-001	1,41912E-006	0,00000E+000	4,05943E-001	0,00000E+000	7	...........	-32768,00
	309	4,42783	4,08793E-001	3,02256E-006	0,00000E+000	4,08943E-001	0,00000E+000	7	...........	-32768,00
	312	4,47068	4,11802E-001	4,57505E-006	0,00000E+000	4,11944E-001	0,00000E+000	7	...........	-32768,00
	315	4,51353	4,14796E-001	6,34194E-006	0,00000E+000	4,14944E-001	0,00000E+000	7	...........	-32768,00
	318	4,55638	4,17793E-001	8,03289E-006	0,00000E+000	4,17944E-001	0,00000E+000	7	...........	-32768,00
	321	4,59923	4,20779E-001	9,81963E-006	0,00000E+000	4,20944E-001	0,00000E+000	8	...........	-32768,00
	324	4,64208	4,23813E-001	1,16920E-005	0,00000E+000	4,23945E-001	0,00000E+000	8	...........	-32768,00
	327	4,68493	4,26809E-001	1,35766E-005	0,00000E+000	4,26945E-001	0,00000E+000	8	...........	-32768,00
	330	4,72778	4,29816E-001	1,55811E-005	0,00000E+000	4,29945E-001	0,00000E+000	8	...........	-32768,00
	333	4,77063	4,32793E-001	1,75136E-005	0,00000E+000	4,32945E-001	0,00000E+000	8	...........	-32768,00
	336	4,81348	4,35800E-001	1,96687E-005	0,00000E+000	4,35946E-001	0,00000E+000	8	...........	-32768,00
	339	4,85633	4,38803E-001	2,17622E-005	0,00000E+000	4,38946E-001	0,00000E+000	8	...........	-32768,00
	342	4,89918	4,41808E-001	2,40006E-005	0,00000E+000	4,41946E-001	0,00000E+000	8	...........	-32768,00
	345	4,94203	4,44794E-001	2,63487E-005	0,00000E+000	4,44946E-001	0,00000E+000	8	...........	-32768,00
	348	4,98488	4,47801E-001	2,88270E-005	0,00000E+000	4,47947E-001	0,00000E+000	8	...........	-32768,00
	351	5,02773	4,50799E-001	3,15164E-005	0,00000E+000	4,50947E-001	0,00000E+000	8	...........	-32768,00
	354	5,07058	4,53798E-001	3,42442E-005	0,00000E+000	4,53947E-001	0,00000E+000	8	...........	-32768,00
	357	5,11343	4,56781E-001	3,72866E-005	0,00000E+000	4,56935E-001	0,00000E+000	8	...........	-32768,00
	360	5,15628	4,59765E-001	4,04199E-005	0,00000E+000	4,59935E-001	0,00000E+000	8	...........	-32768,00
	363	5,19913	4,62797E-001	4,38810E-005	0,00000E+000	4,62935E-001	0,00000E+000	8	...........	-32768,00
	366	5,24198	4,65787E-001	4,75322E-005	0,00000E+000	4,65936E-001	0,00000E+000	8	...........	-32768,00
	369	5,28483	4,68784E-001	5,14309E-005	0,00000E+000	4,68936E-001	0,00000E+000	8	...........	-32768,00
	372	5,32768	4,71779E-001	5,56603E-005	0,00000E+000	4,71936E-001	0,00000E+000	8	...........	-32768,00
	375	5,37053	4,74804E-001	6,00553E-005	0,00000E+000	4,74936E-001	0,00000E+000	8	...........	-32768,00
	378	5,41338	4,77799E-001	6,49081E-005	0,00000E+000	4,77937E-001	0,00000E+000	8	...........	-32768,00
	381	5,45623	4,80780E-001	6,98774E-005	0,00000E+000	4,80937E-001	0,00000E+000	8	...........	-32768,00
	384	5,49908	4,83787E-001	7,52523E-005	0,00000E+000	4,83937E-001	0,00000E+000	8	...........	-32768,00
	387	5,54193	4,86795E-001	8,08992E-005	0,00000E+000	4,86937E-001	0,00000E+000	8	...........	-32768,00
	390	5,58478	4,89794E-001	8,68664E-005	0,00000E+000	4,89937E-001	0,00000E+000	8	...........	-32768,00
	393	5,62763	4,92807E-001	9,32018E-005	0,00000E+000	4,92938E-001	0,00000E+000	9	...........	-32768,00
	396	5,67048	4,95801E-001	9,97954E-005	0,00000E+000	4,95938E-001	0,00000E+000	9	...........	-32768,00
	399	5,71333	4,98794E-001	1,06876E-004	0,00000E+000	4,98938E-001	0,00000E+000	9	...........	-32768,00
	402	5,75618	5,01812E-001	1,14055E-004	0,00000E+000	5,01938E-001	0,00000E+000	9	...........	-32768,00
	405	5,79903	5,04802E-001	1,21722E-004	0,00000E+000	5,04939E-001	0,00000E+000	9	...........	-32768,00
	408	5,84188	5,07788E-001	1,29610E-004	0,00000E+000	5,07926E-001	0,00000E+000	9	...........	-32768,00
	411	5,88473	5,10785E-001	1,37952E-004	0,00000E+000	5,10927E-001	0,00000E+000	9	...........	-32768,00
	414	5,92758	5,13819E-001	1,46646E-004	0,00000E+000	5,13927E-001	0,00000E+000	9	...........	-32768,00
	417	5,97043	5,16808E-001	1,55602E-004	0,00000E+000	5,16927E-001	0,00000E+000	9	...........	-32768,00
	420	6,01328	5,19817E-001	1,65032E-004	0,00000E+000	5,19927E-001	0,00000E+000	9	...........	-32768,00
	423	6,05613	5,22803E-001	1,74621E-004	0,00000E+000	5,22928E-001	0,00000E+000	9	...........	-32768,00
	426	6,09898	5,25820E-001	1,84634E-004	0,00000E+000	5,25928E-001	0,00000E+000	9	...........	-32768,00
	429	6,14183	5,28818E-001	1,94859E-004	0,00000E+000	5,28928E-001	0,00000E+000	9	...........	-32768,00
	432	6,18468	5,31814E-001	2,05524E-004	0,00000E+000	5,31928E-001	0,00000E+000	9	...........	-32768,00
	435	6,22753	5,34819E-001	2,16550E-004	0,00000E+000	5,34929E-001	0,00000E+000	9	...........	-32768,00
	438	6,27038	5,37793E-001	2,27773E-004	0,00000E+000	5,37929E-001	0,00000E+000	9	...........	-32768,00
	441	6,31323	5,40814E-001	2,39448E-004	0,00000E+000	5,40929E-001	0,00000E+000	9	...........	-32768,00
	444	6,35608	5,43808E-001	2,51140E-004	0,00000E+000	5,43929E-001	0,00000E+000	9	...........	-32768,00
	447	6,39893	5,46819E-001	2,63245E-004	0,00000E+000	5,46930E-001	0,00000E+000	9	...........	-32768,00
	450	6,44178	5,49808E-001	2,75467E-004	0,00000E+000	5,49930E-001	0,00000E+000	9	...........	-32768,00
	453	6,48463	5,52819E-001	2,88024E-004	0,00000E+000	5,52930E-001	0,00000E+000	9	...........	-32768,00
	456	6,52748	5,55806E-001	3,00935E-004	0,00000E+000	5,55930E-001	0,00000E+000	9	...........	-32768,00
	459	6,57033	5,58796E-001	3,13848E-004	0,00000E+000	5,58918E-001	0,00000E+000	9	...........	-32768,00
	462	6,61318	5,61790E-001	3,27418E-004	0,00000E+000	5,61918E-001	0,00000E+000	9	...........	-32768,00
	465	6,65603	5,64817E-001	3,41017E-004	0,00000E+000	5,64918E-001	0,00000E+000	9	...........	-32768,00
	468	6,69888	5,67824E-001	3,54931E-004	0,00000E+000	5,67919E-001	0,00000E+000	9	...........	-32768,00
	471	6,74173	5,70808E-001	3,69130E-004	0,00000E+000	5,70919E-001	0,00000E+000	9	...........	-32768,00
	474	6,78458	5,73805E-001	3,83508E-004	0,00000E+000	5,73919E-001	0,00000E+000	9	...........	-32768,00
	477	6,82743	5,76795E-001	3,98169E-004	0,00000E+000	5,76919E-001	0,00000E+000	9	...........	-32768,00
	480	6,87028	5,79823E-001	4,12738E-004	0,00000E+000	5,79920E-001	0,00000E+000	9	...........	-32768,00
	483	6,91313	5,82811E-001	4,27570E-004	0,00000E+000	5,82920E-001	0,00000E+000	9	...........	-32768,00
	486	6,95598	5,85814E-001	4,42204E-004	0,00000E+000	5,85920E-001	0,00000E+000	9	...........	-32768,00
	489	6,99883	5,88811E-001	4,57057E-004	0,00000E+000	5,88920E-001	0,00000E+000	9	...........	-32768,00
	492	7,04168	5,91824E-001	4,71431E-004	0,00000E+000	5,91921E-001	0,00000E+000	9	...........	-32768,00
	495	7,08453	5,94813E-001	4,85731E-004	0,00000E+000	5,94921E-001	0,00000E+000	9	...........	-32768,00
	498	7,12738	5,97810E-001	4,99910E-004	0,00000E+000	5,97921E-001	0,00000E+000	9	...........	-32768,00
	501	7,17023	6,00807E-001	5,13282E-004	0,00000E+000	6,00921E-001	0,00000E+000	9	...........	-32768,00
	504	7,21308	6,03833E-001	5,26220E-004	0,00000E+000	6,03922E-001	0,00000E+000	9	...........	-32768,00
	507	7,25593	6,06810E-001	5,37569E-004	0,00000E+000	6,06909E-001	0,00000E+000	9	...........	-32768,00
	510	7,29878	6,09813E-001	5,47887E-004	0,00000E+000	6,09910E-001	0,00000E+000	9	...........	-32768,00
	513	7,34163	6,12809E-001	5,56210E-004	0,00000E+000	6,12910E-001	0,00000E+000	9	...........	-32768,00
	516	7,38448	6,15830E-001	5,62736E-004	0,00000E+000	6,15910E-001	0,00000E+000	9	...........	-32768,00
	519	7,42733	6,18817E-001	5,66959E-004	0,00000E+000	6,18910E-001	0,00000E+000	9	...........	-32768,00
	522	7,47018	6,21816E-001	5,68411E-004	0,00000E+000	6,21911E-001	0,00000E+000	9	...........	-32768,00
	525	7,51303	6,24798E-001	5,67166E-004	0,00000E+000	6,24911E-001	0,00000E+000	9	...........	-32768,00
	528	7,55588	6,27805E-001	5,62733E-004	0,00000E+000	6,27911E-001	0,00000E+000	9	...........	-32768,00
	531	7,59873	6,30825E-001	5,54834E-004	0,00000E+000	6,30911E-001	0,00000E+000	9	...........	-32768,00
	534	7,64158	6,33829E-001	5,42746E-004	0,00000E+000	6,33911E-001	0,00000E+000	9	...........	-32768,00
	537	7,68443	6,36829E-001	5,25223E-004	0,00000E+000	6,36912E-001	0,00000E+000	9	...........	-32768,00
	540	7,72728	6,39837E-001	5,00928E-004	0,00000E+000	6,39912E-001	0,00000E+000	9	...........	-32768,00
	543	7,77013	6,42854E-001	4,68919E-004	0,00000E+000	6,42912E-001	0,00000E+000	9	...........	-32768,00
	546	7,81298	6,45828E-001	4,27776E-004	0,00000E+000	6,45912E-001	0,00000E+000	9	...........	-32768,00
	549	7,85583	6,48826E-001	3,75384E-004	0,00000E+000	6,48913E-001	0,00000E+000	9	...........	-32768,00
	552	7,89868	6,51830E-001	3,07705E-004	0,00000E+000	6,51913E-001	0,00000E+000	9	...........	-32768,00
	555	7,94153	6,54838E-001	2,26828E-004	0,00000E+000	6,54913E-001	0,00000E+000	9	...........	-32768,00
	558	7,98438	6,57814E-001	1,70579E-004	0,00000E+000	6,57901E-001	0,00000E+000	9	...........	-32768,00
	561	8,02723	6,60820E-001	1,51696E-004	0,00000E+000	6,60901E-001	0,00000E+000	9	...........	-32768,00
	564	8,07008	6,63817E-001	1,39852E-004	0,00000E+000	6,63901E-001	0,00000E+000	9	...........	-32768,00
	567	8,11293	6,66829E-001	1,31155E-004	0,00000E+000	6,66902E-001	0,00000E+000	9	...........	-32768,00
	570	8,15578	6,69829E-001	1,24089E-004	0,00000E+000	6,69902E-001	0,00000E+000	9	...........	-32768,00
	573	8,19863	6,72818E-001	1,18395E-004	0,00000E+000	6,72902E-001	0,00000E+000	9	...........	-32768,00
	576	8,24148	6,75818E-001	1,13540E-004	0,00000E+000	6,75902E-001	0,00000E+000	9	...........	-32768,00
	579	8,28433	6,78818E-001	1,09524E-004	0,00000E+000	6,78903E-001	0,00000E+000	9	...........	-32768,00
	582	8,32718	6,81847E-001	1,05943E-004	0,00000E+000	6,81903E-001	0,00000E+000	9	...........	-32768,00
	585	8,37003	6,84837E-001	1,02733E-004	0,00000E+000	6,84903E-001	0,00000E+000	9	...........	-32768,00
	588	8,41288	6,87811E-001	1,00018E-004	0,00000E+000	6,87903E-001	0,00000E+000	9	...........	-32768,00
	591	8,45573	6,90832E-001	9,76071E-005	0,00000E+000	6,90904E-001	0,00000E+000	9	...........	-32768,00
	594	8,49858	6,93845E-001	9,53255E-005	0,00000E+000	6,93904E-001	0,00000E+000	9	...........	-32768,00
	597	8,54143	6,96845E-001	9,33244E-005	0,00000E+000	6,96904E-001	0,00000E+000	9	...........	-32768,00
	600	8,58428	6,99841E-001	9,14838E-005	0,00000E+000	6,99904E-001	0,00000E+000	9	...........	-32768,00
	603	8,62713	7,02824E-001	8,98938E-005	0,00000E+000	7,02905E-001	0,00000E+000	9	...........	-32768,00
	606	8,66998	7,05853E-001	8,83298E-005	0,00000E+000	7,05905E-001	0,00000E+000	9	...........	-32768,00
	609	8,71283	7,08836E-001	8,70210E-005	0,00000E+000	7,08893E-001	0,00000E+000	9	...........	-32768,00
	612	8,75568	7,11837E-001	8,57254E-005	0,00000E+000	7,11893E-001	0,00000E+000	9	...........	-32768,00
	615	8,79853	7,14813E-001	8,45449E-005	0,00000E+000	7,14893E-001	0,00000E+000	9	...........	-32768,00
	618	8,84138	7,17827E-001	8,34414E-005	0,00000E+000	7,17893E-001	0,00000E+000	9	...........	-32768,00
	621	8,88423	7,20841E-001	8,24910E-005	0,00000E+000	7,20894E-001	0,00000E+000	9	...........	-32768,00
	624	8,92708	7,23844E-001	8,15805E-005	0,00000E+000	7,23894E-001	0,00000E+000	9	...........	-32768,00
	627	8,96993	7,26813E-001	8,06419E-005	0,00000E+000	7,26894E-001	0,00000E+000	8	...........	-32768,00
	630	9,01278	7,29815E-001	7,98112E-005	0,00000E+000	7,29894E-001	0,00000E+000	8	...........	-32768,00
	633	9,05563	7,32831E-001	7,90106E-005	0,00000E+000	7,32894E-001	0,00000E+000	8	...........	-32768,00
	636	9,09848	7,35845E-001	7,83224E-005	0,00000E+000	7,35895E-001	0,00000E+000	8	...........	-32768,00
	639	9,14133	7,38836E-001	7,77238E-005	0,00000E+000	7,38895E-001	0,00000E+000	8	...........	-32768,00
	642	9,18418	7,41835E-001	7,70656E-005	0,00000E+000	7,41895E-001	0,00000E+000	8	...........	-32768,00
	645	9,22703	7,44838E-001	7,65154E-005	0,00000E+000	7,44895E-001	0,00000E+000	8	...........	-32768,00
	648	9,26988	7,47849E-001	7,59343E-005	0,00000E+000	7,47896E-001	0,00000E+000	8	...........	-32768,00
	651	9,31273	7,50838E-001	7,53522E-005	0,00000E+000	7,50896E-001	0,00000E+000	8	...........	-32768,00
	654	9,35558	7,53847E-001	7,48580E-005	0,00000E+000	7,53896E-001	0,00000E+000	8	...........	-32768,00
	657	9,39843	7,56860E-001	7,43686E-005	0,00000E+000	7,56896E-001	0,00000E+000	8	...........	-32768,00
	660	9,44128	7,59835E-001	7,38850E-005	0,00000E+000	7,59884E-001	0,00000E+000	8	...........	-32768,00
	663	9,48413	7,62829E-001	7,34727E-005	0,00000E+000	7,62884E-001	0,00000E+000	8	...........	-32768,00
	666	9,527	7,65825E-001	7,31143E-005	0,00000E+000	7,65885E-001	0,00000E+000	8	...........	-32768,00
	669	9,5698	7,68810E-001	7,27147E-005	0,00000E+000	7,68885E-001	0,00000E+000	8	...........	-32768,00
	672	9,6127	7,71833E-001	7,23517E-005	0,00000E+000	7,71885E-001	0,00000E+000	8	...........	-32768,00
	675	9,6555	7,74850E-001	7,19809E-005	0,00000E+000	7,74885E-001	0,00000E+000	8	...........	-32768,00
	678	9,6984	7,77829E-001	7,16338E-005	0,00000E+000	7,77886E-001	0,00000E+000	8	...........	-32768,00
	681	9,7412	7,80836E-001	7,13209E-005	0,00000E+000	7,80886E-001	0,00000E+000	8	...........	-32768,00
	684	9,7841	7,83848E-001	7,09749E-005	0,00000E+000	7,83886E-001	0,00000E+000	8	...........	-32768,00
	687	9,8269	7,86846E-001	7,06247E-005	0,00000E+000	7,86886E-001	0,00000E+000	8	...........	-32768,00
	690	9,8698	7,89852E-001	7,03284E-005	0,00000E+000	7,89887E-001	0,00000E+000	8	...........	-32768,00
	693	9,9126	7,92845E-001	7,00268E-005	0,00000E+000	7,92887E-001	0,00000E+000	8	...........	-32768,00
	696	9,9555	7,95856E-001	6,97693E-005	0,00000E+000	7,95887E-001	0,00000E+000	8	...........	-32768,00
	699	9,9983	7,98852E-001	6,95414E-005	0,00000E+000	7,98887E-001	0,00000E+000	8	...........	-32768,00
	702	10,0412	7,97852E-001	6,78359E-005	0,00000E+000	7,97887E-001	0,00000E+000	8	...........	-32768,00
	705	10,084	7,94855E-001	6,58675E-005	0,00000E+000	7,94887E-001	0,00000E+000	8	...........	-32768,00
	708	10,1269	7,91842E-001	6,37732E-005	0,00000E+000	7,91887E-001	0,00000E+000	8	...........	-32768,00
	711	10,1697	7,88834E-001	6,19436E-005	0,00000E+000	7,88886E-001	0,00000E+000	8	...........	-32768,00
	714	10,2126	7,85847E-001	6,02595E-005	0,00000E+000	7,85886E-001	0,00000E+000	8	...........	-32768,00
	717	10,2554	7,82858E-001	5,85970E-005	0,00000E+000	7,82886E-001	0,00000E+000	8	...........	-32768,00
	720	10,2983	7,79830E-001	5,70854E-005	0,00000E+000	7,79886E-001	0,00000E+000	8	...........	-32768,00
	723	10,3411	7,76816E-001	5,55962E-005	0,00000E+000	7,76886E-001	0,00000E+000	8	...........	-32768,00
	726	10,384	7,73843E-001	5,41617E-005	0,00000E+000	7,73885E-001	0,00000E+000	8	...........	-32768,00
	729	10,4268	7,70846E-001	5,28394E-005	0,00000E+000	7,70885E-001	0,00000E+000	8	...........	-32768,00
	732	10,4697	7,67818E-001	5,15564E-005	0,00000E+000	7,67885E-001	0,00000E+000	8	...........	-32768,00
	735	10,5125	7,64821E-001	5,03382E-005	0,00000E+000	7,64885E-001	0,00000E+000	8	...........	-32768,00
	738	10,5554	7,61833E-001	4,91411E-005	0,00000E+000	7,61884E-001	0,00000E+000	8	...........	-32768,00
	741	10,5982	7,58830E-001	4,80106E-005	0,00000E+000	7,58884E-001	0,00000E+000	8	...........	-32768,00
	744	10,6411	7,55821E-001	4,69472E-005	0,00000E+000	7,55896E-001	0,00000E+000	8	...........	-32768,00
	747	10,6839	7,52844E-001	4,59427E-005	0,00000E+000	7,52896E-001	0,00000E+000	8	...........	-32768,00
	750	10,7268	7,49834E-001	4,48974E-005	0,00000E+000	7,49896E-001	0,00000E+000	8	...........	-32768,00
	753	10,7696	7,46844E-001	4,39329E-005	0,00000E+000	7,46896E-001	0,00000E+000	8	...........	-32768,00
	756	10,8125	7,43846E-001	4,30121E-005	0,00000E+000	7,43895E-001	0,00000E+000	8	...........	-32768,00
	759	10,8553	7,40826E-001	4,20945E-005	0,00000E+000	7,40895E-001	0,00000E+000	8	...........	-32768,00
	762	10,8982	7,37842E-001	4,12149E-005	0,00000E+000	7,37895E-001	0,00000E+000	8	...........	-32768,00
	765	10,941	7,34824E-001	4,03992E-005	0,00000E+000	7,34895E-001	0,00000E+000	8	...........	-32768,00
	768	10,9839	7,31841E-001	3,95499E-005	0,00000E+000	7,31894E-001	0,00000E+000	8	...........	-32768,00
	771	11,0267	7,28828E-001	3,87723E-005	0,00000E+000	7,28894E-001	0,00000E+000	8	...........	-32768,00
	774	11,0696	7,25847E-001	3,79713E-005	0,00000E+000	7,25894E-001	0,00000E+000	8	...........	-32768,00
	777	11,1124	7,22837E-001	3,72326E-005	0,00000E+000	7,22894E-001	0,00000E+000	8	...........	-32768,00
	780	11,1553	7,19838E-001	3,64973E-005	0,00000E+000	7,19893E-001	0,00000E+000	8	...........	-32768,00
	783	11,1981	7,16799E-001	3,57710E-005	0,00000E+000	7,16893E-001	0,00000E+000	8	...........	-32768,00
	786	11,241	7,13821E-001	3,50727E-005	0,00000E+000	7,13893E-001	0,00000E+000	8	...........	-32768,00
	789	11,2838	7,10818E-001	3,43881E-005	0,00000E+000	7,10893E-001	0,00000E+000	8	...........	-32768,00
	792	11,3267	7,07833E-001	3,37702E-005	0,00000E+000	7,07905E-001	0,00000E+000	8	...........	-32768,00
	795	11,3695	7,04819E-001	3,30980E-005	0,00000E+000	7,04905E-001	0,00000E+000	8	...........	-32768,00
	798	11,4124	7,01821E-001	3,24793E-005	0,00000E+000	7,01904E-001	0,00000E+000	8	...........	-32768,00
	801	11,4552	6,98836E-001	3,18687E-005	0,00000E+000	6,98904E-001	0,00000E+000	8	...........	-32768,00
	804	11,4981	6,95828E-001	3,12547E-005	0,00000E+000	6,95904E-001	0,00000E+000	8	...........	-32768,00
	807	11,5409	6,92842E-001	3,06862E-005	0,00000E+000	6,92904E-001	0,00000E+000	8	...........	-32768,00
	810	11,5838	6,89834E-001	3,00986E-005	0,00000E+000	6,89903E-001	0,00000E+000	8	...........	-32768,00
	813	11,6266	6,86819E-001	2,95590E-005	0,00000E+000	6,86903E-001	0,00000E+000	8	...........	-32768,00
	816	11,6695	6,83824E-001	2,90026E-005	0,00000E+000	6,83903E-001	0,00000E+000	8	...........	-32768,00
	819	11,7123	6,80849E-001	2,84718E-005	0,00000E+000	6,80903E-001	0,00000E+000	8	...........	-32768,00
	822	11,7552	6,77792E-001	2,79437E-005	0,00000E+000	6,77903E-001	0,00000E+000	8	...........	-32768,00
	825	11,798	6,74816E-001	2,74256E-005	0,00000E+000	6,74902E-001	0,00000E+000	8	...........	-32768,00
	828	11,8409	6,71810E-001	2,69209E-005	0,00000E+000	6,71902E-001	0,00000E+000	8	...........	-32768,00
	831	11,8837	6,68817E-001	2,64102E-005	0,00000E+000	6,68902E-001	0,00000E+000	8	...........	-32768,00
	834	11,9266	6,65808E-001	2,59268E-005	0,00000E+000	6,65902E-001	0,00000E+000	8	...........	-32768,00
	837	11,9694	6,62805E-001	2,54412E-005	0,00000E+000	6,62901E-001	0,00000E+000	8	...........	-32768,00
	840	12,0123	6,59807E-001	2,49869E-005	0,00000E+000	6,59901E-001	0,00000E+000	8	...........	-32768,00
	843	12,0551	6,56821E-001	2,45039E-005	0,00000E+000	6,56913E-001	0,00000E+000	8	...........	-32768,00
	846	12,098	6,53817E-001	2,40575E-005	0,00000E+000	6,53913E-001	0,00000E+000	8	...........	-32768,00
	849	12,1408	6,50820E-001	2,36075E-005	0,00000E+000	6,50913E-001	0,00000E+000	8	...........	-32768,00
	852	12,1837	6,47817E-001	2,31553E-005	0,00000E+000	6,47913E-001	0,00000E+000	8	...........	-32768,00
	855	12,2265	6,44816E-001	2,27398E-005	0,00000E+000	6,44912E-001	0,00000E+000	8	...........	-32768,00
	858	12,2694	6,41829E-001	2,22910E-005	0,00000E+000	6,41912E-001	0,00000E+000	8	...........	-32768,00
	861	12,3122	6,38808E-001	2,18775E-005	0,00000E+000	6,38912E-001	0,00000E+000	8	...........	-32768,00
	864	12,3551	6,35819E-001	2,14515E-005	0,00000E+000	6,35912E-001	0,00000E+000	8	...........	-32768,00
	867	12,3979	6,32820E-001	2,10279E-005	0,00000E+000	6,32911E-001	0,00000E+000	8	...........	-32768,00
	870	12,4408	6,29822E-001	2,06228E-005	0,00000E+000	6,29911E-001	0,00000E+000	8	...........	-32768,00
	873	12,4836	6,26804E-001	2,02118E-005	0,00000E+000	6,26911E-001	0,00000E+000	8	...........	-32768,00
	876	12,5265	6,23795E-001	1,98206E-005	0,00000E+000	6,23911E-001	0,00000E+000	8	...........	-32768,00
	879	12,5693	6,20808E-001	1,94136E-005	0,00000E+000	6,20910E-001	0,00000E+000	8	...........	-32768,00
	882	12,6122	6,17812E-001	1,90251E-005	0,00000E+000	6,17910E-001	0,00000E+000	8	...........	-32768,00
	885	12,655	6,14808E-001	1,86268E-005	0,00000E+000	6,14910E-001	0,00000E+000	8	...........	-32768,00
	888	12,6979	6,11802E-001	1,82465E-005	0,00000E+000	6,11910E-001	0,00000E+000	8	...........	-32768,00
	891	12,7407	6,08803E-001	1,78589E-005	0,00000E+000	6,08909E-001	0,00000E+000	8	...........	-32768,00
	894	12,7836	6,05830E-001	1,74857E-005	0,00000E+000	6,05922E-001	0,00000E+000	8	...........	-32768,00
	897	12,8264	6,02844E-001	1,71264E-005	0,00000E+000	6,02922E-001	0,00000E+000	8	...........	-32768,00
	900	12,8693	5,99807E-001	1,67329E-005	0,00000E+000	5,99921E-001	0,00000E+000	8	...........	-32768,00
	903	12,9121	5,96813E-001	1,63741E-005	0,00000E+000	5,96921E-001	0,00000E+000	8	...........	-32768,00
	906	12,955	5,93818E-001	1,59950E-005	0,00000E+000	5,93921E-001	0,00000E+000	8	...........	-32768,00
	909	12,9978	5,90823E-001	1,56205E-005	0,00000E+000	5,90921E-001	0,00000E+000	8	...........	-32768,00
	912	13,0407	5,87815E-001	1,52498E-005	0,00000E+000	5,87920E-001	0,00000E+000	8	...........	-32768,00
	915	13,0835	5,84811E-001	1,48884E-005	0,00000E+000	5,84920E-001	0,00000E+000	8	...........	-32768,00
	918	13,1264	5,81811E-001	1,45280E-005	0,00000E+000	5,81920E-001	0,00000E+000	8	...........	-32768,00
	921	13,1692	5,78821E-001	1,41511E-005	0,00000E+000	5,78920E-001	0,00000E+000	8	...........	-32768,00
	924	13,2121	5,75792E-001	1,38012E-005	0,00000E+000	5,75919E-001	0,00000E+000	8	...........	-32768,00
	927	13,2549	5,72799E-001	1,34285E-005	0,00000E+000	5,72919E-001	0,00000E+000	8	...........	-32768,00
	930	13,2978	5,69803E-001	1,30755E-005	0,00000E+000	5,69919E-001	0,00000E+000	8	...........	-32768,00
	933	13,3406	5,66815E-001	1,27133E-005	0,00000E+000	5,66919E-001	0,00000E+000	8	...........	-32768,00
	936	13,3835	5,63782E-001	1,23475E-005	0,00000E+000	5,63918E-001	0,00000E+000	8	...........	-32768,00
	939	13,4263	5,60795E-001	1,20095E-005	0,00000E+000	5,60918E-001	0,00000E+000	8	...........	-32768,00
	942	13,4692	5,57786E-001	1,16452E-005	0,00000E+000	5,57918E-001	0,00000E+000	8	...........	-32768,00
	945	13,512	5,54819E-001	1,13108E-005	0,00000E+000	5,54930E-001	0,00000E+000	8	...........	-32768,00
	948	13,5549	5,51823E-001	1,09635E-005	0,00000E+000	5,51930E-001	0,00000E+000	8	...........	-32768,00
	951	13,5977	5,48802E-001	1,06308E-005	0,00000E+000	5,48930E-001	0,00000E+000	8	...........	-32768,00
	954	13,6406	5,45816E-001	1,02968E-005	0,00000E+000	5,45929E-001	0,00000E+000	8	...........	-32768,00
	957	13,6834	5,42813E-001	9,97051E-006	0,00000E+000	5,42929E-001	0,00000E+000	8	...........	-32768,00
	960	13,7263	5,39810E-001	9,67336E-006	0,00000E+000	5,39929E-001	0,00000E+000	8	...........	-32768,00
	963	13,7691	5,36800E-001	9,36679E-006	0,00000E+000	5,36929E-001	0,00000E+000	8	...........	-32768,00
	966	13,812	5,33817E-001	9,08519E-006	0,00000E+000	5,33929E-001	0,00000E+000	8	...........	-32768,00
	969	13,8548	5,30812E-001	8,78923E-006	0,00000E+000	5,30928E-001	0,00000E+000	8	...........	-32768,00
	972	13,8977	5,27800E-001	8,52305E-006	0,00000E+000	5,27928E-001	0,00000E+000	8	...........	-32768,00
	975	13,9405	5,24788E-001	8,25052E-006	0,00000E+000	5,24928E-001	0,00000E+000	8	...........	-32768,00
	978	13,9834	5,21788E-001	7,98228E-006	0,00000E+000	5,21928E-001	0,00000E+000	7	...........	-32768,00
	981	14,0262	5,18785E-001	7,74495E-006	0,00000E+000	5,18927E-001	0,00000E+000	7	...........	-32768,00
	984	14,0691	5,15792E-001	7,48253E-006	0,00000E+000	5,15927E-001	0,00000E+000	7	...........	-32768,00
	987	14,1119	5,12790E-001	7,23566E-006	0,00000E+000	5,12927E-001	0,00000E+000	7	...........	-32768,00
	990	14,1548	5,09776E-001	6,98574E-006	0,00000E+000	5,09927E-001	0,00000E+000	7	...........	-32768,00
	993	14,1976	5,06784E-001	6,73791E-006	0,00000E+000	5,06926E-001	0,00000E+000	7	...........	-32768,00
	996	14,2405	5,03794E-001	6,49202E-006	0,00000E+000	5,03939E-001	0,00000E+000	7	...........	-32768,00
	999	14,2833	5,00815E-001	6,23637E-006	0,00000E+000	5,00938E-001	0,00000E+000	7	...........	-32768,00
	1002	14,3262	4,97780E-001	5,99680E-006	0,00000E+000	4,97938E-001	0,00000E+000	7	...........	-32768,00
	1005	14,369	4,94782E-001	5,73052E-006	0,00000E+000	4,94938E-001	0,00000E+000	7	...........	-32768,00
	1008	14,4119	4,91799E-001	5,48713E-006	0,00000E+000	4,91938E-001	0,00000E+000	7	...........	-32768,00
	1011	14,4547	4,88802E-001	5,21953E-006	0,00000E+000	4,88937E-001	0,00000E+000	7	...........	-32768,00
	1014	14,4976	4,85780E-001	4,95722E-006	0,00000E+000	4,85937E-001	0,00000E+000	7	...........	-32768,00
	1017	14,5404	4,82788E-001	4,67965E-006	0,00000E+000	4,82937E-001	0,00000E+000	7	...........	-32768,00
	1020	14,5833	4,79800E-001	4,39826E-006	0,00000E+000	4,79937E-001	0,00000E+000	7	...........	-32768,00
	1023	14,6261	4,76786E-001	4,11630E-006	0,00000E+000	4,76936E-001	0,00000E+000	7	...........	-32768,00
	1026	14,669	4,73782E-001	3,81722E-006	0,00000E+000	4,73936E-001	0,00000E+000	7	...........	-32768,00
	1029	14,7118	4,70770E-001	3,51914E-006	0,00000E+000	4,70936E-001	0,00000E+000	7	...........	-32768,00
	1032	14,7547	4,67786E-001	3,19563E-006	0,00000E+000	4,67936E-001	0,00000E+000	7	...........	-32768,00
	1035	14,7975	4,64795E-001	2,86838E-006	0,00000E+000	4,64935E-001	0,00000E+000	7	...........	-32768,00
	1038	14,8404	4,61790E-001	2,49829E-006	0,00000E+000	4,61935E-001	0,00000E+000	7	...........	-32768,00
	1041	14,8832	4,58778E-001	2,09072E-006	0,00000E+000	4,58935E-001	0,00000E+000	7	...........	-32768,00
	1044	14,9261	4,55777E-001	1,60706E-006	0,00000E+000	4,55935E-001	0,00000E+000	7	...........	-32768,00
	1047	14,9689	4,52794E-001	9,71085E-007	0,00000E+000	4,52947E-001	0,00000E+000	7	...........	-32768,00
	1050	15,0118	4,49815E-001	9,89761E-008	0,00000E+000	4,49947E-001	0,00000E+000	7	...........	-32768,00
	1053	15,0546	4,46792E-001	-1,16675E-006	0,00000E+000	4,46947E-001	0,00000E+000	7	...........	-32768,00
	1056	15,0975	4,43796E-001	-2,95930E-006	0,00000E+000	4,43946E-001	0,00000E+000	7	...........	-32768,00
	1059	15,1403	4,40816E-001	-5,53571E-006	0,00000E+000	4,40946E-001	0,00000E+000	7	...........	-32768,00
	1062	15,1832	4,37825E-001	-9,07642E-006	0,00000E+000	4,37946E-001	0,00000E+000	7	...........	-32768,00
	1065	15,226	4,34784E-001	-1,37789E-005	0,00000E+000	4,34946E-001	0,00000E+000	8	...........	-32768,00
	1068	15,2689	4,31789E-001	-1,97646E-005	0,00000E+000	4,31945E-001	0,00000E+000	8	...........	-32768,00
	1071	15,3117	4,28799E-001	-2,71309E-005	0,00000E+000	4,28945E-001	0,00000E+000	8	...........	-32768,00
	1074	15,3546	4,25804E-001	-3,59657E-005	0,00000E+000	4,25945E-001	0,00000E+000	8	...........	-32768,00
	1077	15,3974	4,22804E-001	-4,62293E-005	0,00000E+000	4,22945E-001	0,00000E+000	8	...........	-32768,00
	1080	15,4403	4,19781E-001	-5,78402E-005	0,00000E+000	4,19944E-001	0,00000E+000	8	...........	-32768,00
	1083	15,4831	4,16797E-001	-7,05770E-005	0,00000E+000	4,16944E-001	0,00000E+000	8	...........	-32768,00
	1086	15,526	4,13795E-001	-8,41787E-005	0,00000E+000	4,13944E-001	0,00000E+000	8	...........	-32768,00
	1089	15,5688	4,10799E-001	-9,83853E-005	0,00000E+000	4,10944E-001	0,00000E+000	9	...........	-32768,00
	1092	15,6117	4,07804E-001	-1,12792E-004	0,00000E+000	4,07943E-001	0,00000E+000	9	...........	-32768,00
	1095	15,6545	4,04799E-001	-1,27117E-004	0,00000E+000	4,04943E-001	0,00000E+000	9	...........	-32768,00
	1098	15,6974	4,01804E-001	-1,40983E-004	0,00000E+000	4,01955E-001	0,00000E+000	9	...........	-32768,00
	1101	15,7402	3,98810E-001	-1,54240E-004	0,00000E+000	3,98955E-001	0,00000E+000	9	...........	-32768,00
	1104	15,7831	3,95800E-001	-1,66582E-004	0,00000E+000	3,95955E-001	0,00000E+000	9	...........	-32768,00
	1107	15,8259	3,92806E-001	-1,77863E-004	0,00000E+000	3,92955E-001	0,00000E+000	9	...........	-32768,00
	1110	15,8688	3,89809E-001	-1,87975E-004	0,00000E+000	3,89954E-001	0,00000E+000	9	...........	-32768,00
	1113	15,9116	3,86817E-001	-1,96835E-004	0,00000E+000	3,86954E-001	0,00000E+000	9	...........	-32768,00
	1116	15,9545	3,83798E-001	-2,04465E-004	0,00000E+000	3,83954E-001	0,00000E+000	9	...........	-32768,00
	1119	15,9973	3,80814E-001	-2,10864E-004	0,00000E+000	3,80954E-001	0,00000E+000	9	...........	-32768,00
	1122	16,0402	3,77807E-001	-2,16090E-004	0,00000E+000	3,77953E-001	0,00000E+000	9	...........	-32768,00
	1125	16,083	3,74814E-001	-2,20138E-004	0,00000E+000	3,74953E-001	0,00000E+000	9	...........	-32768,00
	1128	16,1259	3,71791E-001	-2,23167E-004	0,00000E+000	3,71953E-001	0,00000E+000	9	...........	-32768,00
	1131	16,1687	3,68797E-001	-2,25157E-004	0,00000E+000	3,68953E-001	0,00000E+000	9	...........	-32768,00
	1134	16,2116	3,65790E-001	-2,26263E-004	0,00000E+000	3,65953E-001	0,00000E+000	9	...........	-32768,00
	1137	16,2544	3,62809E-001	-2,26584E-004	0,00000E+000	3,62952E-001	0,00000E+000	9	...........	-32768,00
	1140	16,2973	3,59814E-001	-2,26118E-004	0,00000E+000	3,59952E-001	0,00000E+000	9	...........	-32768,00
	1143	16,3401	3,56784E-001	-2,24996E-004	0,00000E+000	3,56952E-001	0,00000E+000	9	...........	-32768,00
	1146	16,383	3,53803E-001	-2,23302E-004	0,00000E+000	3,53952E-001	0,00000E+000	9	...........	-32768,00
	1149	16,4258	3,50809E-001	-2,21138E-004	0,00000E+000	3,50964E-001	0,00000E+000	9	...........	-32768,00
	1152	16,4687	3,47808E-001	-2,18509E-004	0,00000E+000	3,47964E-001	0,00000E+000	9	...........	-32768,00
	1155	16,5115	3,44812E-001	-2,15553E-004	0,00000E+000	3,44963E-001	0,00000E+000	9	...........	-32768,00
	1158	16,5544	3,41805E-001	-2,12398E-004	0,00000E+000	3,41963E-001	0,00000E+000	9	...........	-32768,00
	1161	16,5972	3,38803E-001	-2,08957E-004	0,00000E+000	3,38963E-001	0,00000E+000	9	...........	-32768,00
	1164	16,6401	3,35807E-001	-2,05421E-004	0,00000E+000	3,35963E-001	0,00000E+000	9	...........	-32768,00
	1167	16,6829	3,32793E-001	-2,01726E-004	0,00000E+000	3,32962E-001	0,00000E+000	9	...........	-32768,00
	1170	16,7258	3,29796E-001	-1,97885E-004	0,00000E+000	3,29962E-001	0,00000E+000	9	...........	-32768,00
	1173	16,7686	3,26801E-001	-1,94071E-004	0,00000E+000	3,26962E-001	0,00000E+000	9	...........	-32768,00
	1176	16,8115	3,23809E-001	-1,90203E-004	0,00000E+000	3,23962E-001	0,00000E+000	9	...........	-32768,00
	1179	16,8543	3,20811E-001	-1,86382E-004	0,00000E+000	3,20961E-001	0,00000E+000	9	...........	-32768,00
	1182	16,8972	3,17803E-001	-1,82496E-004	0,00000E+000	3,17961E-001	0,00000E+000	9	...........	-32768,00
	1185	16,94	3,14795E-001	-1,78771E-004	0,00000E+000	3,14961E-001	0,00000E+000	9	...........	-32768,00
	1188	16,9829	3,11809E-001	-1,75130E-004	0,00000E+000	3,11961E-001	0,00000E+000	9	...........	-32768,00
	1191	17,0257	3,08802E-001	-1,71546E-004	0,00000E+000	3,08960E-001	0,00000E+000	9	...........	-32768,00
	1194	17,0686	3,05789E-001	-1,68057E-004	0,00000E+000	3,05960E-001	0,00000E+000	9	...........	-32768,00
	1197	17,1114	3,02792E-001	-1,64615E-004	0,00000E+000	3,02960E-001	0,00000E+000	9	...........	-32768,00
	1200	17,1543	2,99795E-001	-1,61340E-004	0,00000E+000	2,99972E-001	0,00000E+000	9	...........	-32768,00
	1203	17,1971	2,96815E-001	-1,58143E-004	0,00000E+000	2,96972E-001	0,00000E+000	9	...........	-32768,00
	1206	17,24	2,93790E-001	-1,55104E-004	0,00000E+000	2,93972E-001	0,00000E+000	9	...........	-32768,00
	1209	17,2828	2,90787E-001	-1,52094E-004	0,00000E+000	2,90972E-001	0,00000E+000	9	...........	-32768,00
	1212	17,3257	2,87797E-001	-1,49266E-004	0,00000E+000	2,87971E-001	0,00000E+000	9	...........	-32768,00
	1215	17,3685	2,84805E-001	-1,46574E-004	0,00000E+000	2,84971E-001	0,00000E+000	9	...........	-32768,00
	1218	17,4114	2,81795E-001	-1,43823E-004	0,00000E+000	2,81971E-001	0,00000E+000	9	...........	-32768,00
	1221	17,4542	2,78788E-001	-1,41325E-004	0,00000E+000	2,78971E-001	0,00000E+000	9	...........	-32768,00
	1224	17,4971	2,75796E-001	-1,38899E-004	0,00000E+000	2,75970E-001	0,00000E+000	9	...........	-32768,00
	1227	17,5399	2,72806E-001	-1,36541E-004	0,00000E+000	2,72970E-001	0,00000E+000	9	...........	-32768,00
	1230	17,5828	2,69806E-001	-1,34275E-004	0,00000E+000	2,69970E-001	0,00000E+000	9	...........	-32768,00
	1233	17,6256	2,66785E-001	-1,32127E-004	0,00000E+000	2,66970E-001	0,00000E+000	9	...........	-32768,00
	1236	17,6685	2,63801E-001	-1,29977E-004	0,00000E+000	2,63969E-001	0,00000E+000	9	...........	-32768,00
	1239	17,7113	2,60792E-001	-1,27945E-004	0,00000E+000	2,60969E-001	0,00000E+000	9	...........	-32768,00
	1242	17,7542	2,57801E-001	-1,26056E-004	0,00000E+000	2,57969E-001	0,00000E+000	9	...........	-32768,00
	1245	17,797	2,54780E-001	-1,24153E-004	0,00000E+000	2,54969E-001	0,00000E+000	9	...........	-32768,00
	1248	17,8399	2,51784E-001	-1,22359E-004	0,00000E+000	2,51981E-001	0,00000E+000	9	...........	-32768,00
	1251	17,8827	2,48803E-001	-1,20623E-004	0,00000E+000	2,48981E-001	0,00000E+000	9	...........	-32768,00
	1254	17,9256	2,45815E-001	-1,18967E-004	0,00000E+000	2,45980E-001	0,00000E+000	9	...........	-32768,00
	1257	17,9684	2,42779E-001	-1,17351E-004	0,00000E+000	2,42980E-001	0,00000E+000	9	...........	-32768,00
	1260	18,0113	2,39782E-001	-1,15756E-004	0,00000E+000	2,39980E-001	0,00000E+000	9	...........	-32768,00
	1263	18,0541	2,36792E-001	-1,14307E-004	0,00000E+000	2,36980E-001	0,00000E+000	9	...........	-32768,00
	1266	18,097	2,33783E-001	-1,12827E-004	0,00000E+000	2,33979E-001	0,00000E+000	9	...........	-32768,00
	1269	18,1398	2,30796E-001	-1,11483E-004	0,00000E+000	2,30979E-001	0,00000E+000	9	...........	-32768,00
	1272	18,1827	2,27798E-001	-1,10089E-004	0,00000E+000	2,27979E-001	0,00000E+000	9	...........	-32768,00
	1275	18,2255	2,24785E-001	-1,08841E-004	0,00000E+000	2,24979E-001	0,00000E+000	9	...........	-32768,00
	1278	18,2684	2,21801E-001	-1,07640E-004	0,00000E+000	2,21978E-001	0,00000E+000	9	...........	-32768,00
	1281	18,3112	2,18809E-001	-1,06441E-004	0,00000E+000	2,18978E-001	0,00000E+000	9	...........	-32768,00
	1284	18,3541	2,15786E-001	-1,05319E-004	0,00000E+000	2,15978E-001	0,00000E+000	9	...........	-32768,00
	1287	18,3969	2,12783E-001	-1,04201E-004	0,00000E+000	2,12978E-001	0,00000E+000	9	...........	-32768,00
	1290	18,4398	2,09789E-001	-1,03166E-004	0,00000E+000	2,09978E-001	0,00000E+000	9	...........	-32768,00
	1293	18,4826	2,06796E-001	-1,02182E-004	0,00000E+000	2,06977E-001	0,00000E+000	9	...........	-32768,00
	1296	18,5255	2,03777E-001	-1,01221E-004	0,00000E+000	2,03977E-001	0,00000E+000	9	...........	-32768,00
	1299	18,5683	2,00796E-001	-1,00311E-004	0,00000E+000	2,00989E-001	0,00000E+000	9	...........	-32768,00
	1302	18,6112	1,97796E-001	-9,94885E-005	0,00000E+000	1,97989E-001	0,00000E+000	9	...........	-32768,00
	1305	18,654	1,94801E-001	-9,86686E-005	0,00000E+000	1,94989E-001	0,00000E+000	9	...........	-32768,00
	1308	18,6969	1,91785E-001	-9,77993E-005	0,00000E+000	1,91989E-001	0,00000E+000	9	...........	-32768,00
	1311	18,7397	1,88789E-001	-9,71067E-005	0,00000E+000	1,88988E-001	0,00000E+000	9	...........	-32768,00
	1314	18,7826	1,85799E-001	-9,62459E-005	0,00000E+000	1,85988E-001	0,00000E+000	9	...........	-32768,00
	1317	18,8254	1,82793E-001	-9,55574E-005	0,00000E+000	1,82988E-001	0,00000E+000	9	...........	-32768,00
	1320	18,8683	1,79812E-001	-9,48484E-005	0,00000E+000	1,79988E-001	0,00000E+000	9	...........	-32768,00
	1323	18,9111	1,76786E-001	-9,41815E-005	0,00000E+000	1,76987E-001	0,00000E+000	9	...........	-32768,00
	1326	18,954	1,73799E-001	-9,35264E-005	0,00000E+000	1,73987E-001	0,00000E+000	9	...........	-32768,00
	1329	18,9968	1,70794E-001	-9,28215E-005	0,00000E+000	1,70987E-001	0,00000E+000	9	...........	-32768,00
	1332	19,0397	1,67808E-001	-9,21920E-005	0,00000E+000	1,67987E-001	0,00000E+000	9	...........	-32768,00
	1335	19,0825	1,64771E-001	-9,15533E-005	0,00000E+000	1,64986E-001	0,00000E+000	9	...........	-32768,00
	1338	19,1254	1,61780E-001	-9,09717E-005	0,00000E+000	1,61986E-001	0,00000E+000	9	...........	-32768,00
	1341	19,1682	1,58783E-001	-9,03498E-005	0,00000E+000	1,58986E-001	0,00000E+000	9	...........	-32768,00
	1344	19,2111	1,55787E-001	-8,97306E-005	0,00000E+000	1,55986E-001	0,00000E+000	9	...........	-32768,00
	1347	19,2539	1,52776E-001	-8,91434E-005	0,00000E+000	1,52985E-001	0,00000E+000	9	...........	-32768,00
	1350	19,2968	1,49799E-001	-8,86285E-005	0,00000E+000	1,49998E-001	0,00000E+000	9	...........	-32768,00
	1353	19,3396	1,46791E-001	-8,80278E-005	0,00000E+000	1,46997E-001	0,00000E+000	9	...........	-32768,00
	1356	19,3825	1,43798E-001	-8,74469E-005	0,00000E+000	1,43997E-001	0,00000E+000	9	...........	-32768,00
	1359	19,4253	1,40782E-001	-8,69544E-005	0,00000E+000	1,40997E-001	0,00000E+000	9	...........	-32768,00
	1362	19,4682	1,37792E-001	-8,63670E-005	0,00000E+000	1,37997E-001	0,00000E+000	9	...........	-32768,00
	1365	19,511	1,34802E-001	-8,58268E-005	0,00000E+000	1,34997E-001	0,00000E+000	9	...........	-32768,00
	1368	19,5539	1,31804E-001	-8,53275E-005	0,00000E+000	1,31996E-001	0,00000E+000	9	...........	-32768,00
	1371	19,5967	1,28814E-001	-8,47637E-005	0,00000E+000	1,28996E-001	0,00000E+000	9	...........	-32768,00
	1374	19,6396	1,25798E-001	-8,42168E-005	0,00000E+000	1,25996E-001	0,00000E+000	9	...........	-32768,00
	1377	19,6824	1,22794E-001	-8,37102E-005	0,00000E+000	1,22996E-001	0,00000E+000	9	...........	-32768,00
	1380	19,7253	1,19801E-001	-8,32298E-005	0,00000E+000	1,19995E-001	0,00000E+000	9	...........	-32768,00
	1383	19,7681	1,16803E-001	-8,26854E-005	0,00000E+000	1,16995E-001	0,00000E+000	9	...........	-32768,00
	1386	19,811	1,13778E-001	-8,21798E-005	0,00000E+000	1,13995E-001	0,00000E+000	9	...........	-32768,00
	1389	19,8538	1,10786E-001	-8,18247E-005	0,00000E+000	1,10995E-001	0,00000E+000	9	...........	-32768,00
	1392	19,8967	1,07779E-001	-8,12719E-005	0,00000E+000	1,07994E-001	0,00000E+000	9	...........	-32768,00
	1395	19,9395	1,04798E-001	-8,07689E-005	0,00000E+000	1,04994E-001	0,00000E+000	8	...........	-32768,00
	1398	19,9824	1,01797E-001	-8,02659E-005	0,00000E+000	1,01994E-001	0,00000E+000	8	...........	-32768,00
	1400	20,011	9,97980E-002	-7,99088E-005	0,00000E+000	1,00006E-001	0,00000E+000	8	...........	-32768,00