File: HOPG_cv/3mM/AgNO3_HOPG_3mM_40mv_1_cv.DTA
EXPLAIN
TAG	CV
TITLE	LABEL	Cyclic Voltammetry	Test &Identifier
DATE	LABEL	30/4/2022	Date
TIME	LABEL	16:05:55	Time
NOTES	NOTES	2	&Notes...
	30/04/22 , 5mM  AgNO3

PSTAT	PSTAT	IFC1000-09004	Potentiostat
VINIT	POTEN	1,00000E-001	F	Initial &E (V)
VLIMIT1	POTEN	1,00000E-001	F	Scan Limit &1 (V)
VLIMIT2	POTEN	8,00000E-001	F	Scan Limit &2 (V)
VFINAL	POTEN	1,00000E-001	F	Final &E (V)
SCANRATE	QUANT	3,99999E+001	&Scan Rate (mV/s)
STEPSIZE	QUANT	1,00000E+000	St&ep Size (mV)
CYCLES	IQUANT	1	C&ycles (#)
IMODE	SELECTOR	0	I/E Range &Mode
IRANGE	QUANT	1,00000E-005	&Max Current (mA)
AREA	QUANT	1,00000E+000	Electrode &Area (cm^2)
ELECTRODETYPE	SELECTOR	0	Electrode Type
STRIPPING	TOGGLE	F	Used for Stripping
POLARITY	TOGGLE	F	Signal Polarity
CONDIT	TWOPARAM	F	1,50000E+001	0,00000E+000	Conditionin&g	Time(s)	E(V)
DELAY	TWOPARAM	F	3,00000E+001	0,00000E+000	Init. De&lay	Time(s)	Stab.(mV/s)
EQDELAY	QUANT	1,00000E+001	Equil. &Time (s)
IRCOMP	SELECTOR	0	IRCom&p
PFCOR	QUANT	5,00000E+001	PF Corr. (ohm)
SAMPLINGMODE	SELECTOR	1	Sampling &Mode
EOC	QUANT	0	Open Circuit (V)
PSTATMODEL	IQUANT	48	Pstat Model
PSTATSECTION	LABEL	IFC1000-09004	Pstat Section
PSTATSERIALNO	LABEL	09004	Pstat Serial Number
CTRLMODE	IQUANT	1	Control Mode
ELECTROMETER	IQUANT	0	RE=0 or CS=1
IESTAB	IQUANT	2	I/E Stability
CASPEED	IQUANT	4	Control Amp Speed
CONVENTION	IQUANT	1	Current Convention
ICHRANGE	IQUANT	2	Ich Range
ICHRANGEMODE	TOGGLE	F	Ich Auto Range
ICHOFFSETENABLE	TOGGLE	F	Ich Offset Enable
ICHOFFSET	QUANT	0	Ich Offset (V)
ICHFILTER	IQUANT	3	Ich Filter
VCHRANGE	IQUANT	2	Vch Range
VCHRANGEMODE	TOGGLE	F	Vch Auto Range
VCHOFFSETENABLE	TOGGLE	F	Vch Offset Enable
VCHOFFSET	QUANT	0	Vch Offset (V)
VCHFILTER	IQUANT	3	Vch Filter
IERANGELOWERLIMIT	IQUANT	4	I/E Range Lower Limit
IERANGEMODE	TOGGLE	T	I/E AutoRange
IERANGE	IQUANT	5	I/E Range
ACHSELECT	IQUANT	0	Ach Select
ACHRANGE	IQUANT	2	Ach Range
ACHOFFSETENABLE	TOGGLE	F	Ach Offset Enable
ACHOFFSET	QUANT	0	Ach Offset (V)
ACHFILTER	IQUANT	1	Ach Filter
CABLEID	IQUANT	14	Cable ID
DCCALDATE	LABEL	3/18/2022	DC Calibration Date
ACCALDATE	LABEL	3/10/2016	AC Calibration Date
FRAMEWORKVERSION	QUANT	7,05	Framework Version
INSTRUMENTVERSION	LABEL	4.21	Instrument Version
CURVE1	TABLE
	Pt	T	Vf	Im	Vu	Sig	Ach	IERange	Over	Temp
	#	s	V vs. Ref.	A	V	V	V	#	bits	deg C
	0	0,025	9,98185E-002	-1,09478E-005	0,00000E+000	1,00006E-001	0,00000E+000	7	....ih..i..	-32768,00
	3	0,1	1,02779E-001	-3,11790E-005	0,00000E+000	1,02994E-001	0,00000E+000	8	...........	-32768,00
	6	0,175	1,05793E-001	-3,06651E-005	0,00000E+000	1,05994E-001	0,00000E+000	8	...........	-32768,00
	9	0,25	1,08785E-001	-3,02643E-005	0,00000E+000	1,08994E-001	0,00000E+000	8	...........	-32768,00
	12	0,325	1,11786E-001	-2,98634E-005	0,00000E+000	1,11995E-001	0,00000E+000	8	...........	-32768,00
	15	0,4	1,14771E-001	-2,95130E-005	0,00000E+000	1,14995E-001	0,00000E+000	8	...........	-32768,00
	18	0,475	1,17807E-001	-2,92008E-005	0,00000E+000	1,17995E-001	0,00000E+000	8	...........	-32768,00
	21	0,55	1,20794E-001	-2,88893E-005	0,00000E+000	1,20995E-001	0,00000E+000	8	...........	-32768,00
	24	0,625	1,23793E-001	-2,85731E-005	0,00000E+000	1,23996E-001	0,00000E+000	8	...........	-32768,00
	27	0,7	1,26795E-001	-2,83092E-005	0,00000E+000	1,26996E-001	0,00000E+000	8	...........	-32768,00
	30	0,775	1,29810E-001	-2,80250E-005	0,00000E+000	1,29996E-001	0,00000E+000	8	...........	-32768,00
	33	0,85	1,32802E-001	-2,77891E-005	0,00000E+000	1,32996E-001	0,00000E+000	8	...........	-32768,00
	36	0,925	1,35801E-001	-2,75519E-005	0,00000E+000	1,35997E-001	0,00000E+000	8	...........	-32768,00
	39	1	1,38796E-001	-2,72589E-005	0,00000E+000	1,38997E-001	0,00000E+000	8	...........	-32768,00
	42	1,075	1,41806E-001	-2,70400E-005	0,00000E+000	1,41997E-001	0,00000E+000	8	...........	-32768,00
	45	1,15	1,44802E-001	-2,67840E-005	0,00000E+000	1,44997E-001	0,00000E+000	8	...........	-32768,00
	48	1,225	1,47806E-001	-2,65769E-005	0,00000E+000	1,47998E-001	0,00000E+000	8	...........	-32768,00
	51	1,3	1,50777E-001	-2,63319E-005	0,00000E+000	1,50998E-001	0,00000E+000	8	...........	-32768,00
	54	1,375	1,53794E-001	-2,61522E-005	0,00000E+000	1,53998E-001	0,00000E+000	8	...........	-32768,00
	57	1,45	1,56814E-001	-2,59299E-005	0,00000E+000	1,56998E-001	0,00000E+000	8	...........	-32768,00
	60	1,525	1,59807E-001	-2,57602E-005	0,00000E+000	1,59999E-001	0,00000E+000	8	...........	-32768,00
	63	1,6	1,62801E-001	-2,55707E-005	0,00000E+000	1,62999E-001	0,00000E+000	8	...........	-32768,00
	66	1,675	1,65801E-001	-2,53777E-005	0,00000E+000	1,65999E-001	0,00000E+000	8	...........	-32768,00
	69	1,75	1,68829E-001	-2,51886E-005	0,00000E+000	1,68999E-001	0,00000E+000	8	...........	-32768,00
	72	1,825	1,71812E-001	-2,50409E-005	0,00000E+000	1,71999E-001	0,00000E+000	8	...........	-32768,00
	75	1,9	1,74807E-001	-2,48597E-005	0,00000E+000	1,75000E-001	0,00000E+000	8	...........	-32768,00
	78	1,975	1,77788E-001	-2,46916E-005	0,00000E+000	1,78000E-001	0,00000E+000	8	...........	-32768,00
	81	2,05	1,80831E-001	-2,45401E-005	0,00000E+000	1,81000E-001	0,00000E+000	8	...........	-32768,00
	84	2,125	1,83823E-001	-2,43499E-005	0,00000E+000	1,84000E-001	0,00000E+000	8	...........	-32768,00
	87	2,2	1,86825E-001	-2,42056E-005	0,00000E+000	1,87001E-001	0,00000E+000	8	...........	-32768,00
	90	2,275	1,89814E-001	-2,40398E-005	0,00000E+000	1,90001E-001	0,00000E+000	8	...........	-32768,00
	93	2,35	1,92833E-001	-2,38919E-005	0,00000E+000	1,93001E-001	0,00000E+000	8	...........	-32768,00
	96	2,425	1,95829E-001	-2,37292E-005	0,00000E+000	1,96001E-001	0,00000E+000	8	...........	-32768,00
	99	2,5	1,98808E-001	-2,35828E-005	0,00000E+000	1,99002E-001	0,00000E+000	8	...........	-32768,00
	102	2,575	2,01815E-001	-2,34266E-005	0,00000E+000	2,02002E-001	0,00000E+000	8	...........	-32768,00
	105	2,65	2,04805E-001	-2,32931E-005	0,00000E+000	2,05002E-001	0,00000E+000	8	...........	-32768,00
	108	2,725	2,07821E-001	-2,31413E-005	0,00000E+000	2,08002E-001	0,00000E+000	8	...........	-32768,00
	111	2,8	2,10819E-001	-2,30175E-005	0,00000E+000	2,11003E-001	0,00000E+000	8	...........	-32768,00
	114	2,875	2,13812E-001	-2,28644E-005	0,00000E+000	2,14003E-001	0,00000E+000	8	...........	-32768,00
	117	2,95	2,16809E-001	-2,27379E-005	0,00000E+000	2,17003E-001	0,00000E+000	8	...........	-32768,00
	120	3,025	2,19828E-001	-2,25846E-005	0,00000E+000	2,20003E-001	0,00000E+000	8	...........	-32768,00
	123	3,1	2,22823E-001	-2,24630E-005	0,00000E+000	2,23004E-001	0,00000E+000	8	...........	-32768,00
	126	3,175	2,25805E-001	-2,23142E-005	0,00000E+000	2,26004E-001	0,00000E+000	8	...........	-32768,00
	129	3,25	2,28808E-001	-2,21883E-005	0,00000E+000	2,29004E-001	0,00000E+000	8	...........	-32768,00
	132	3,325	2,31830E-001	-2,20509E-005	0,00000E+000	2,32004E-001	0,00000E+000	8	...........	-32768,00
	135	3,4	2,34826E-001	-2,19406E-005	0,00000E+000	2,35005E-001	0,00000E+000	8	...........	-32768,00
	138	3,475	2,37821E-001	-2,17907E-005	0,00000E+000	2,38005E-001	0,00000E+000	8	...........	-32768,00
	141	3,55	2,40824E-001	-2,16802E-005	0,00000E+000	2,41005E-001	0,00000E+000	8	...........	-32768,00
	144	3,625	2,43834E-001	-2,15427E-005	0,00000E+000	2,44005E-001	0,00000E+000	8	...........	-32768,00
	147	3,7	2,46807E-001	-2,14202E-005	0,00000E+000	2,47005E-001	0,00000E+000	8	...........	-32768,00
	150	3,775	2,49830E-001	-2,12762E-005	0,00000E+000	2,50006E-001	0,00000E+000	8	...........	-32768,00
	153	3,85	2,52806E-001	-2,11588E-005	0,00000E+000	2,53006E-001	0,00000E+000	8	...........	-32768,00
	156	3,925	2,55823E-001	-2,10078E-005	0,00000E+000	2,56006E-001	0,00000E+000	8	...........	-32768,00
	159	4	2,58816E-001	-2,09093E-005	0,00000E+000	2,58994E-001	0,00000E+000	8	...........	-32768,00
	162	4,075	2,61812E-001	-2,07587E-005	0,00000E+000	2,61994E-001	0,00000E+000	8	...........	-32768,00
	165	4,15	2,64820E-001	-2,06429E-005	0,00000E+000	2,64994E-001	0,00000E+000	8	...........	-32768,00
	168	4,225	2,67814E-001	-2,04929E-005	0,00000E+000	2,67995E-001	0,00000E+000	8	...........	-32768,00
	171	4,3	2,70816E-001	-2,03863E-005	0,00000E+000	2,70995E-001	0,00000E+000	8	...........	-32768,00
	174	4,375	2,73814E-001	-2,02283E-005	0,00000E+000	2,73995E-001	0,00000E+000	8	...........	-32768,00
	177	4,45	2,76817E-001	-2,01035E-005	0,00000E+000	2,76995E-001	0,00000E+000	8	...........	-32768,00
	180	4,525	2,79810E-001	-1,99384E-005	0,00000E+000	2,79996E-001	0,00000E+000	8	...........	-32768,00
	183	4,6	2,82845E-001	-1,98330E-005	0,00000E+000	2,82996E-001	0,00000E+000	8	...........	-32768,00
	186	4,675	2,85829E-001	-1,96726E-005	0,00000E+000	2,85996E-001	0,00000E+000	8	...........	-32768,00
	189	4,75	2,88820E-001	-1,95527E-005	0,00000E+000	2,88996E-001	0,00000E+000	8	...........	-32768,00
	192	4,825	2,91817E-001	-1,93663E-005	0,00000E+000	2,91997E-001	0,00000E+000	8	...........	-32768,00
	195	4,9	2,94798E-001	-1,92407E-005	0,00000E+000	2,94997E-001	0,00000E+000	8	...........	-32768,00
	198	4,975	2,97830E-001	-1,90516E-005	0,00000E+000	2,97997E-001	0,00000E+000	8	...........	-32768,00
	201	5,05	3,00823E-001	-1,89152E-005	0,00000E+000	3,00997E-001	0,00000E+000	8	...........	-32768,00
	204	5,125	3,03821E-001	-1,87055E-005	0,00000E+000	3,03998E-001	0,00000E+000	8	...........	-32768,00
	207	5,2	3,06816E-001	-1,85662E-005	0,00000E+000	3,06998E-001	0,00000E+000	8	...........	-32768,00
	210	5,275	3,09830E-001	-1,83468E-005	0,00000E+000	3,09998E-001	0,00000E+000	8	...........	-32768,00
	213	5,35	3,12844E-001	-1,81974E-005	0,00000E+000	3,12998E-001	0,00000E+000	8	...........	-32768,00
	216	5,425	3,15834E-001	-1,79488E-005	0,00000E+000	3,15998E-001	0,00000E+000	8	...........	-32768,00
	219	5,5	3,18828E-001	-1,77613E-005	0,00000E+000	3,18999E-001	0,00000E+000	8	...........	-32768,00
	222	5,575	3,21847E-001	-1,75072E-005	0,00000E+000	3,21999E-001	0,00000E+000	8	...........	-32768,00
	225	5,65	3,24841E-001	-1,73124E-005	0,00000E+000	3,24999E-001	0,00000E+000	8	...........	-32768,00
	228	5,725	3,27834E-001	-1,70127E-005	0,00000E+000	3,27999E-001	0,00000E+000	8	...........	-32768,00
	231	5,8	3,30829E-001	-1,67554E-005	0,00000E+000	3,31000E-001	0,00000E+000	8	...........	-32768,00
	234	5,875	3,33853E-001	-1,63826E-005	0,00000E+000	3,34000E-001	0,00000E+000	8	...........	-32768,00
	237	5,95	3,36843E-001	-1,60115E-005	0,00000E+000	3,37000E-001	0,00000E+000	8	...........	-32768,00
	240	6,025	3,39838E-001	-1,55221E-005	0,00000E+000	3,40000E-001	0,00000E+000	8	...........	-32768,00
	243	6,1	3,42835E-001	-1,50467E-005	0,00000E+000	3,43001E-001	0,00000E+000	8	...........	-32768,00
	246	6,175	3,45836E-001	-1,45165E-005	0,00000E+000	3,46001E-001	0,00000E+000	8	...........	-32768,00
	249	6,25	3,48844E-001	-1,40579E-005	0,00000E+000	3,49001E-001	0,00000E+000	8	...........	-32768,00
	252	6,325	3,51832E-001	-1,35477E-005	0,00000E+000	3,52001E-001	0,00000E+000	8	...........	-32768,00
	255	6,4	3,54830E-001	-1,31104E-005	0,00000E+000	3,55002E-001	0,00000E+000	8	...........	-32768,00
	258	6,475	3,57830E-001	-1,25620E-005	0,00000E+000	3,58002E-001	0,00000E+000	8	...........	-32768,00
	261	6,55	3,60843E-001	-1,20842E-005	0,00000E+000	3,61002E-001	0,00000E+000	8	...........	-32768,00
	264	6,625	3,63831E-001	-1,14778E-005	0,00000E+000	3,64002E-001	0,00000E+000	8	...........	-32768,00
	267	6,7	3,66840E-001	-1,09487E-005	0,00000E+000	3,67003E-001	0,00000E+000	8	...........	-32768,00
	270	6,775	3,69839E-001	-1,02872E-005	0,00000E+000	3,70003E-001	0,00000E+000	8	...........	-32768,00
	273	6,85	3,72857E-001	-9,69367E-006	0,00000E+000	3,73003E-001	0,00000E+000	8	...........	-32768,00
	276	6,925	3,75854E-001	-8,93797E-006	0,00000E+000	3,76003E-001	0,00000E+000	8	...........	-32768,00
	279	7	3,78858E-001	-8,25274E-006	0,00000E+000	3,79004E-001	0,00000E+000	8	...........	-32768,00
	282	7,075	3,81855E-001	-7,42846E-006	0,00000E+000	3,82004E-001	0,00000E+000	7	...........	-32768,00
	285	7,15	3,84875E-001	-6,62448E-006	0,00000E+000	3,85004E-001	0,00000E+000	7	...........	-32768,00
	288	7,225	3,87873E-001	-5,68856E-006	0,00000E+000	3,88004E-001	0,00000E+000	7	...........	-32768,00
	291	7,3	3,90864E-001	-4,77694E-006	0,00000E+000	3,91005E-001	0,00000E+000	7	...........	-32768,00
	294	7,375	3,93850E-001	-3,73997E-006	0,00000E+000	3,94005E-001	0,00000E+000	7	...........	-32768,00
	297	7,45	3,96862E-001	-2,74069E-006	0,00000E+000	3,97005E-001	0,00000E+000	7	...........	-32768,00
	300	7,525	3,99866E-001	-1,61507E-006	0,00000E+000	4,00005E-001	0,00000E+000	7	...........	-32768,00
	303	7,6	4,02859E-001	-4,98349E-007	0,00000E+000	4,03005E-001	0,00000E+000	7	...........	-32768,00
	306	7,675	4,05867E-001	7,09751E-007	0,00000E+000	4,06006E-001	0,00000E+000	7	...........	-32768,00
	309	7,75	4,08841E-001	1,93157E-006	0,00000E+000	4,09006E-001	0,00000E+000	7	...........	-32768,00
	312	7,825	4,11867E-001	3,23289E-006	0,00000E+000	4,12006E-001	0,00000E+000	7	...........	-32768,00
	315	7,9	4,14816E-001	4,55112E-006	0,00000E+000	4,14994E-001	0,00000E+000	7	...........	-32768,00
	318	7,975	4,17835E-001	5,92481E-006	0,00000E+000	4,17994E-001	0,00000E+000	7	...........	-32768,00
	321	8,05	4,20819E-001	7,31059E-006	0,00000E+000	4,20994E-001	0,00000E+000	7	...........	-32768,00
	324	8,125	4,23843E-001	8,73229E-006	0,00000E+000	4,23995E-001	0,00000E+000	7	...........	-32768,00
	327	8,2	4,26855E-001	1,01269E-005	0,00000E+000	4,26995E-001	0,00000E+000	8	...........	-32768,00
	330	8,275	4,29863E-001	1,16070E-005	0,00000E+000	4,29995E-001	0,00000E+000	8	...........	-32768,00
	333	8,35	4,32852E-001	1,30591E-005	0,00000E+000	4,32995E-001	0,00000E+000	8	...........	-32768,00
	336	8,425	4,35850E-001	1,46089E-005	0,00000E+000	4,35996E-001	0,00000E+000	8	...........	-32768,00
	339	8,5	4,38840E-001	1,61661E-005	0,00000E+000	4,38996E-001	0,00000E+000	8	...........	-32768,00
	342	8,575	4,41860E-001	1,77977E-005	0,00000E+000	4,41996E-001	0,00000E+000	8	...........	-32768,00
	345	8,65	4,44843E-001	1,95033E-005	0,00000E+000	4,44996E-001	0,00000E+000	8	...........	-32768,00
	348	8,725	4,47853E-001	2,13399E-005	0,00000E+000	4,47997E-001	0,00000E+000	8	...........	-32768,00
	351	8,8	4,50855E-001	2,32690E-005	0,00000E+000	4,50997E-001	0,00000E+000	8	...........	-32768,00
	354	8,875	4,53846E-001	2,53655E-005	0,00000E+000	4,53997E-001	0,00000E+000	8	...........	-32768,00
	357	8,95	4,56841E-001	2,76013E-005	0,00000E+000	4,56997E-001	0,00000E+000	8	...........	-32768,00
	360	9,025	4,59834E-001	3,00125E-005	0,00000E+000	4,59998E-001	0,00000E+000	8	...........	-32768,00
	363	9,1	4,62857E-001	3,26012E-005	0,00000E+000	4,62998E-001	0,00000E+000	8	...........	-32768,00
	366	9,175	4,65840E-001	3,54144E-005	0,00000E+000	4,65998E-001	0,00000E+000	8	...........	-32768,00
	369	9,25	4,68836E-001	3,84271E-005	0,00000E+000	4,68998E-001	0,00000E+000	8	...........	-32768,00
	372	9,325	4,71844E-001	4,16193E-005	0,00000E+000	4,71999E-001	0,00000E+000	8	...........	-32768,00
	375	9,4	4,74873E-001	4,51112E-005	0,00000E+000	4,74999E-001	0,00000E+000	8	...........	-32768,00
	378	9,475	4,77874E-001	4,87748E-005	0,00000E+000	4,77999E-001	0,00000E+000	8	...........	-32768,00
	381	9,55	4,80850E-001	5,27208E-005	0,00000E+000	4,80999E-001	0,00000E+000	8	...........	-32768,00
	384	9,625	4,83849E-001	5,69160E-005	0,00000E+000	4,83999E-001	0,00000E+000	8	...........	-32768,00
	387	9,7	4,86847E-001	6,13922E-005	0,00000E+000	4,87000E-001	0,00000E+000	8	...........	-32768,00
	390	9,775	4,89855E-001	6,60535E-005	0,00000E+000	4,90000E-001	0,00000E+000	8	...........	-32768,00
	393	9,85	4,92857E-001	7,10731E-005	0,00000E+000	4,93000E-001	0,00000E+000	8	...........	-32768,00
	396	9,925	4,95865E-001	7,62184E-005	0,00000E+000	4,96000E-001	0,00000E+000	8	...........	-32768,00
	399	10	4,98849E-001	8,17737E-005	0,00000E+000	4,99001E-001	0,00000E+000	8	...........	-32768,00
	402	10,075	5,01871E-001	8,75841E-005	0,00000E+000	5,02001E-001	0,00000E+000	8	...........	-32768,00
	405	10,15	5,04872E-001	9,36528E-005	0,00000E+000	5,05001E-001	0,00000E+000	9	...........	-32768,00
	408	10,225	5,07867E-001	9,99527E-005	0,00000E+000	5,08001E-001	0,00000E+000	9	...........	-32768,00
	411	10,3	5,10865E-001	1,06573E-004	0,00000E+000	5,11002E-001	0,00000E+000	9	...........	-32768,00
	414	10,375	5,13889E-001	1,13499E-004	0,00000E+000	5,14002E-001	0,00000E+000	9	...........	-32768,00
	417	10,45	5,16879E-001	1,20751E-004	0,00000E+000	5,17002E-001	0,00000E+000	9	...........	-32768,00
	420	10,525	5,19887E-001	1,28301E-004	0,00000E+000	5,20002E-001	0,00000E+000	9	...........	-32768,00
	423	10,6	5,22875E-001	1,36173E-004	0,00000E+000	5,23003E-001	0,00000E+000	9	...........	-32768,00
	426	10,675	5,25886E-001	1,44169E-004	0,00000E+000	5,26003E-001	0,00000E+000	9	...........	-32768,00
	429	10,75	5,28888E-001	1,52601E-004	0,00000E+000	5,29003E-001	0,00000E+000	9	...........	-32768,00
	432	10,825	5,31886E-001	1,61159E-004	0,00000E+000	5,32003E-001	0,00000E+000	9	...........	-32768,00
	435	10,9	5,34885E-001	1,70148E-004	0,00000E+000	5,35004E-001	0,00000E+000	9	...........	-32768,00
	438	10,975	5,37876E-001	1,79247E-004	0,00000E+000	5,38004E-001	0,00000E+000	9	...........	-32768,00
	441	11,05	5,40891E-001	1,88718E-004	0,00000E+000	5,41004E-001	0,00000E+000	9	...........	-32768,00
	444	11,125	5,43876E-001	1,98387E-004	0,00000E+000	5,44004E-001	0,00000E+000	9	...........	-32768,00
	447	11,2	5,46883E-001	2,08559E-004	0,00000E+000	5,47005E-001	0,00000E+000	9	...........	-32768,00
	450	11,275	5,49885E-001	2,18825E-004	0,00000E+000	5,50005E-001	0,00000E+000	9	...........	-32768,00
	453	11,35	5,52883E-001	2,29411E-004	0,00000E+000	5,53005E-001	0,00000E+000	9	...........	-32768,00
	456	11,425	5,55879E-001	2,40174E-004	0,00000E+000	5,56005E-001	0,00000E+000	9	...........	-32768,00
	459	11,5	5,58877E-001	2,51166E-004	0,00000E+000	5,59005E-001	0,00000E+000	9	...........	-32768,00
	462	11,575	5,61875E-001	2,62182E-004	0,00000E+000	5,62006E-001	0,00000E+000	9	...........	-32768,00
	465	11,65	5,64915E-001	2,73208E-004	0,00000E+000	5,65006E-001	0,00000E+000	9	...........	-32768,00
	468	11,725	5,67907E-001	2,83944E-004	0,00000E+000	5,68006E-001	0,00000E+000	9	...........	-32768,00
	471	11,8	5,70876E-001	2,94590E-004	0,00000E+000	5,70994E-001	0,00000E+000	9	...........	-32768,00
	474	11,875	5,73886E-001	3,05029E-004	0,00000E+000	5,73994E-001	0,00000E+000	9	...........	-32768,00
	477	11,95	5,76856E-001	3,15165E-004	0,00000E+000	5,76994E-001	0,00000E+000	9	...........	-32768,00
	480	12,025	5,79884E-001	3,24353E-004	0,00000E+000	5,79995E-001	0,00000E+000	9	...........	-32768,00
	483	12,1	5,82881E-001	3,32489E-004	0,00000E+000	5,82995E-001	0,00000E+000	9	...........	-32768,00
	486	12,175	5,85881E-001	3,38566E-004	0,00000E+000	5,85995E-001	0,00000E+000	9	...........	-32768,00
	489	12,25	5,88883E-001	3,42339E-004	0,00000E+000	5,88995E-001	0,00000E+000	9	...........	-32768,00
	492	12,325	5,91893E-001	3,42985E-004	0,00000E+000	5,91996E-001	0,00000E+000	9	...........	-32768,00
	495	12,4	5,94887E-001	3,39790E-004	0,00000E+000	5,94996E-001	0,00000E+000	9	...........	-32768,00
	498	12,475	5,97900E-001	3,31817E-004	0,00000E+000	5,97996E-001	0,00000E+000	9	...........	-32768,00
	501	12,55	6,00891E-001	3,18921E-004	0,00000E+000	6,00996E-001	0,00000E+000	9	...........	-32768,00
	504	12,625	6,03911E-001	2,99780E-004	0,00000E+000	6,03997E-001	0,00000E+000	9	...........	-32768,00
	507	12,7	6,06908E-001	2,74565E-004	0,00000E+000	6,06997E-001	0,00000E+000	9	...........	-32768,00
	510	12,775	6,09895E-001	2,43998E-004	0,00000E+000	6,09997E-001	0,00000E+000	9	...........	-32768,00
	513	12,85	6,12896E-001	2,10063E-004	0,00000E+000	6,12997E-001	0,00000E+000	9	...........	-32768,00
	516	12,925	6,15923E-001	1,72935E-004	0,00000E+000	6,15998E-001	0,00000E+000	9	...........	-32768,00
	519	13	6,18910E-001	1,32570E-004	0,00000E+000	6,18998E-001	0,00000E+000	9	...........	-32768,00
	522	13,075	6,21898E-001	1,02872E-004	0,00000E+000	6,21998E-001	0,00000E+000	9	...........	-32768,00
	525	13,15	6,24894E-001	9,22153E-005	0,00000E+000	6,24998E-001	0,00000E+000	9	...........	-32768,00
	528	13,225	6,27894E-001	8,63275E-005	0,00000E+000	6,27999E-001	0,00000E+000	9	...........	-32768,00
	531	13,3	6,30914E-001	8,21248E-005	0,00000E+000	6,30999E-001	0,00000E+000	9	...........	-32768,00
	534	13,375	6,33907E-001	7,87962E-005	0,00000E+000	6,33999E-001	0,00000E+000	8	...........	-32768,00
	537	13,45	6,36912E-001	7,61358E-005	0,00000E+000	6,36999E-001	0,00000E+000	8	...........	-32768,00
	540	13,525	6,39891E-001	7,38866E-005	0,00000E+000	6,40000E-001	0,00000E+000	8	...........	-32768,00
	543	13,6	6,42913E-001	7,20123E-005	0,00000E+000	6,43000E-001	0,00000E+000	8	...........	-32768,00
	546	13,675	6,45910E-001	7,03703E-005	0,00000E+000	6,46000E-001	0,00000E+000	8	...........	-32768,00
	549	13,75	6,48908E-001	6,89470E-005	0,00000E+000	6,49000E-001	0,00000E+000	8	...........	-32768,00
	552	13,825	6,51902E-001	6,77165E-005	0,00000E+000	6,52000E-001	0,00000E+000	8	...........	-32768,00
	555	13,9	6,54916E-001	6,66647E-005	0,00000E+000	6,55001E-001	0,00000E+000	8	...........	-32768,00
	558	13,975	6,57910E-001	6,56294E-005	0,00000E+000	6,58001E-001	0,00000E+000	8	...........	-32768,00
	561	14,05	6,60903E-001	6,48017E-005	0,00000E+000	6,61001E-001	0,00000E+000	8	...........	-32768,00
	564	14,125	6,63901E-001	6,39666E-005	0,00000E+000	6,64001E-001	0,00000E+000	8	...........	-32768,00
	567	14,2	6,66930E-001	6,32877E-005	0,00000E+000	6,67002E-001	0,00000E+000	8	...........	-32768,00
	570	14,275	6,69922E-001	6,26886E-005	0,00000E+000	6,70002E-001	0,00000E+000	8	...........	-32768,00
	573	14,35	6,72904E-001	6,20207E-005	0,00000E+000	6,73002E-001	0,00000E+000	8	...........	-32768,00
	576	14,425	6,75915E-001	6,15636E-005	0,00000E+000	6,76002E-001	0,00000E+000	8	...........	-32768,00
	579	14,5	6,78911E-001	6,10008E-005	0,00000E+000	6,79003E-001	0,00000E+000	8	...........	-32768,00
	582	14,575	6,81928E-001	6,06410E-005	0,00000E+000	6,82003E-001	0,00000E+000	8	...........	-32768,00
	585	14,65	6,84922E-001	6,01779E-005	0,00000E+000	6,85003E-001	0,00000E+000	8	...........	-32768,00
	588	14,725	6,87917E-001	5,98342E-005	0,00000E+000	6,88003E-001	0,00000E+000	8	...........	-32768,00
	591	14,8	6,90919E-001	5,94921E-005	0,00000E+000	6,91004E-001	0,00000E+000	8	...........	-32768,00
	594	14,875	6,93938E-001	5,91775E-005	0,00000E+000	6,94004E-001	0,00000E+000	8	...........	-32768,00
	597	14,95	6,96937E-001	5,90033E-005	0,00000E+000	6,97004E-001	0,00000E+000	8	...........	-32768,00
	600	15,025	6,99930E-001	5,86550E-005	0,00000E+000	7,00004E-001	0,00000E+000	8	...........	-32768,00
	603	15,1	7,02929E-001	5,84916E-005	0,00000E+000	7,03005E-001	0,00000E+000	8	...........	-32768,00
	606	15,175	7,05945E-001	5,82132E-005	0,00000E+000	7,06005E-001	0,00000E+000	8	...........	-32768,00
	609	15,25	7,08950E-001	5,79848E-005	0,00000E+000	7,09005E-001	0,00000E+000	8	...........	-32768,00
	612	15,325	7,11928E-001	5,78247E-005	0,00000E+000	7,12005E-001	0,00000E+000	8	...........	-32768,00
	615	15,4	7,14925E-001	5,77712E-005	0,00000E+000	7,15006E-001	0,00000E+000	8	...........	-32768,00
	618	15,475	7,17943E-001	5,75545E-005	0,00000E+000	7,18006E-001	0,00000E+000	8	...........	-32768,00
	621	15,55	7,20942E-001	5,76020E-005	0,00000E+000	7,21006E-001	0,00000E+000	8	...........	-32768,00
	624	15,625	7,23944E-001	5,74232E-005	0,00000E+000	7,24006E-001	0,00000E+000	8	...........	-32768,00
	627	15,7	7,26918E-001	5,73675E-005	0,00000E+000	7,26994E-001	0,00000E+000	8	...........	-32768,00
	630	15,775	7,29920E-001	5,72567E-005	0,00000E+000	7,29994E-001	0,00000E+000	8	...........	-32768,00
	633	15,85	7,32928E-001	5,70269E-005	0,00000E+000	7,32994E-001	0,00000E+000	8	...........	-32768,00
	636	15,925	7,35938E-001	5,68945E-005	0,00000E+000	7,35995E-001	0,00000E+000	8	...........	-32768,00
	639	16	7,38930E-001	5,69368E-005	0,00000E+000	7,38995E-001	0,00000E+000	8	...........	-32768,00
	642	16,075	7,41938E-001	5,67883E-005	0,00000E+000	7,41995E-001	0,00000E+000	8	...........	-32768,00
	645	16,15	7,44943E-001	5,66958E-005	0,00000E+000	7,44995E-001	0,00000E+000	8	...........	-32768,00
	648	16,225	7,47959E-001	5,67454E-005	0,00000E+000	7,47996E-001	0,00000E+000	8	...........	-32768,00
	651	16,3	7,50939E-001	5,67321E-005	0,00000E+000	7,50996E-001	0,00000E+000	8	...........	-32768,00
	654	16,375	7,53935E-001	5,65466E-005	0,00000E+000	7,53996E-001	0,00000E+000	8	...........	-32768,00
	657	16,45	7,56958E-001	5,66120E-005	0,00000E+000	7,56996E-001	0,00000E+000	8	...........	-32768,00
	660	16,525	7,59945E-001	5,64393E-005	0,00000E+000	7,59997E-001	0,00000E+000	8	...........	-32768,00
	663	16,6	7,62950E-001	5,65541E-005	0,00000E+000	7,62997E-001	0,00000E+000	8	...........	-32768,00
	666	16,675	7,65941E-001	5,64362E-005	0,00000E+000	7,65997E-001	0,00000E+000	8	...........	-32768,00
	669	16,75	7,68935E-001	5,64089E-005	0,00000E+000	7,68997E-001	0,00000E+000	8	...........	-32768,00
	672	16,825	7,71959E-001	5,65391E-005	0,00000E+000	7,71998E-001	0,00000E+000	8	...........	-32768,00
	675	16,9	7,74956E-001	5,63241E-005	0,00000E+000	7,74998E-001	0,00000E+000	8	...........	-32768,00
	678	16,975	7,77943E-001	5,63810E-005	0,00000E+000	7,77998E-001	0,00000E+000	8	...........	-32768,00
	681	17,05	7,80949E-001	5,63072E-005	0,00000E+000	7,80998E-001	0,00000E+000	8	...........	-32768,00
	684	17,125	7,83964E-001	5,63270E-005	0,00000E+000	7,83999E-001	0,00000E+000	8	...........	-32768,00
	687	17,2	7,86961E-001	5,62959E-005	0,00000E+000	7,86999E-001	0,00000E+000	8	...........	-32768,00
	690	17,275	7,89965E-001	5,62615E-005	0,00000E+000	7,89999E-001	0,00000E+000	8	...........	-32768,00
	693	17,35	7,92955E-001	5,63402E-005	0,00000E+000	7,92999E-001	0,00000E+000	8	...........	-32768,00
	696	17,425	7,95964E-001	5,62591E-005	0,00000E+000	7,96000E-001	0,00000E+000	8	...........	-32768,00
	699	17,5	7,98961E-001	5,60985E-005	0,00000E+000	7,99000E-001	0,00000E+000	8	...........	-32768,00
	702	17,575	7,97980E-001	5,52017E-005	0,00000E+000	7,98000E-001	0,00000E+000	8	...........	-32768,00
	705	17,65	7,94965E-001	5,37357E-005	0,00000E+000	7,94999E-001	0,00000E+000	8	...........	-32768,00
	708	17,725	7,91958E-001	5,23655E-005	0,00000E+000	7,91999E-001	0,00000E+000	8	...........	-32768,00
	711	17,8	7,88951E-001	5,10738E-005	0,00000E+000	7,88999E-001	0,00000E+000	8	...........	-32768,00
	714	17,875	7,85964E-001	4,99350E-005	0,00000E+000	7,85999E-001	0,00000E+000	8	...........	-32768,00
	717	17,95	7,82973E-001	4,87534E-005	0,00000E+000	7,82998E-001	0,00000E+000	8	...........	-32768,00
	720	18,025	7,79948E-001	4,76625E-005	0,00000E+000	7,79998E-001	0,00000E+000	8	...........	-32768,00
	723	18,1	7,76941E-001	4,66944E-005	0,00000E+000	7,76998E-001	0,00000E+000	8	...........	-32768,00
	726	18,175	7,73959E-001	4,55900E-005	0,00000E+000	7,73998E-001	0,00000E+000	8	...........	-32768,00
	729	18,25	7,70978E-001	4,46468E-005	0,00000E+000	7,70998E-001	0,00000E+000	8	...........	-32768,00
	732	18,325	7,67931E-001	4,37080E-005	0,00000E+000	7,67997E-001	0,00000E+000	8	...........	-32768,00
	735	18,4	7,64927E-001	4,28241E-005	0,00000E+000	7,64997E-001	0,00000E+000	8	...........	-32768,00
	738	18,475	7,61940E-001	4,19684E-005	0,00000E+000	7,61997E-001	0,00000E+000	8	...........	-32768,00
	741	18,55	7,58944E-001	4,11427E-005	0,00000E+000	7,58997E-001	0,00000E+000	8	...........	-32768,00
	744	18,625	7,55946E-001	4,03408E-005	0,00000E+000	7,55996E-001	0,00000E+000	8	...........	-32768,00
	747	18,7	7,52940E-001	3,95656E-005	0,00000E+000	7,52996E-001	0,00000E+000	8	...........	-32768,00
	750	18,775	7,49938E-001	3,87981E-005	0,00000E+000	7,49996E-001	0,00000E+000	8	...........	-32768,00
	753	18,85	7,46953E-001	3,80873E-005	0,00000E+000	7,46996E-001	0,00000E+000	8	...........	-32768,00
	756	18,925	7,43958E-001	3,73974E-005	0,00000E+000	7,43995E-001	0,00000E+000	8	...........	-32768,00
	759	19	7,40931E-001	3,66567E-005	0,00000E+000	7,40995E-001	0,00000E+000	8	...........	-32768,00
	762	19,075	7,37940E-001	3,60026E-005	0,00000E+000	7,37995E-001	0,00000E+000	8	...........	-32768,00
	765	19,15	7,34934E-001	3,53536E-005	0,00000E+000	7,34995E-001	0,00000E+000	8	...........	-32768,00
	768	19,225	7,31957E-001	3,47024E-005	0,00000E+000	7,31994E-001	0,00000E+000	8	...........	-32768,00
	771	19,3	7,28927E-001	3,41001E-005	0,00000E+000	7,28994E-001	0,00000E+000	8	...........	-32768,00
	774	19,375	7,25931E-001	3,34832E-005	0,00000E+000	7,25994E-001	0,00000E+000	8	...........	-32768,00
	777	19,45	7,22949E-001	3,29068E-005	0,00000E+000	7,23006E-001	0,00000E+000	8	...........	-32768,00
	780	19,525	7,19954E-001	3,23288E-005	0,00000E+000	7,20006E-001	0,00000E+000	8	...........	-32768,00
	783	19,6	7,16924E-001	3,17759E-005	0,00000E+000	7,17006E-001	0,00000E+000	8	...........	-32768,00
	786	19,675	7,13928E-001	3,12122E-005	0,00000E+000	7,14005E-001	0,00000E+000	8	...........	-32768,00
	789	19,75	7,10916E-001	3,06786E-005	0,00000E+000	7,11005E-001	0,00000E+000	8	...........	-32768,00
	792	19,825	7,07935E-001	3,01425E-005	0,00000E+000	7,08005E-001	0,00000E+000	8	...........	-32768,00
	795	19,9	7,04917E-001	2,96385E-005	0,00000E+000	7,05005E-001	0,00000E+000	8	...........	-32768,00
	798	19,975	7,01930E-001	2,91471E-005	0,00000E+000	7,02004E-001	0,00000E+000	8	...........	-32768,00
	801	20,05	6,98944E-001	2,86509E-005	0,00000E+000	6,99004E-001	0,00000E+000	8	...........	-32768,00
	804	20,125	6,95935E-001	2,81699E-005	0,00000E+000	6,96004E-001	0,00000E+000	8	...........	-32768,00
	807	20,2	6,92945E-001	2,76911E-005	0,00000E+000	6,93004E-001	0,00000E+000	8	...........	-32768,00
	810	20,275	6,89929E-001	2,72259E-005	0,00000E+000	6,90004E-001	0,00000E+000	8	...........	-32768,00
	813	20,35	6,86922E-001	2,67922E-005	0,00000E+000	6,87003E-001	0,00000E+000	8	...........	-32768,00
	816	20,425	6,83940E-001	2,63359E-005	0,00000E+000	6,84003E-001	0,00000E+000	8	...........	-32768,00
	819	20,5	6,80932E-001	2,59056E-005	0,00000E+000	6,81003E-001	0,00000E+000	8	...........	-32768,00
	822	20,575	6,77905E-001	2,54690E-005	0,00000E+000	6,78003E-001	0,00000E+000	8	...........	-32768,00
	825	20,65	6,74906E-001	2,50485E-005	0,00000E+000	6,75002E-001	0,00000E+000	8	...........	-32768,00
	828	20,725	6,71902E-001	2,46244E-005	0,00000E+000	6,72002E-001	0,00000E+000	8	...........	-32768,00
	831	20,8	6,68918E-001	2,42296E-005	0,00000E+000	6,69002E-001	0,00000E+000	8	...........	-32768,00
	834	20,875	6,65906E-001	2,38136E-005	0,00000E+000	6,66002E-001	0,00000E+000	8	...........	-32768,00
	837	20,95	6,62905E-001	2,34118E-005	0,00000E+000	6,63001E-001	0,00000E+000	8	...........	-32768,00
	840	21,025	6,59910E-001	2,30168E-005	0,00000E+000	6,60001E-001	0,00000E+000	8	...........	-32768,00
	843	21,1	6,56906E-001	2,26479E-005	0,00000E+000	6,57001E-001	0,00000E+000	8	...........	-32768,00
	846	21,175	6,53907E-001	2,22589E-005	0,00000E+000	6,54001E-001	0,00000E+000	8	...........	-32768,00
	849	21,25	6,50898E-001	2,18986E-005	0,00000E+000	6,51000E-001	0,00000E+000	8	...........	-32768,00
	852	21,325	6,47907E-001	2,15215E-005	0,00000E+000	6,48000E-001	0,00000E+000	8	...........	-32768,00
	855	21,4	6,44912E-001	2,11696E-005	0,00000E+000	6,45000E-001	0,00000E+000	8	...........	-32768,00
	858	21,475	6,41915E-001	2,08069E-005	0,00000E+000	6,42000E-001	0,00000E+000	8	...........	-32768,00
	861	21,55	6,38901E-001	2,04547E-005	0,00000E+000	6,38999E-001	0,00000E+000	8	...........	-32768,00
	864	21,625	6,35906E-001	2,01008E-005	0,00000E+000	6,35999E-001	0,00000E+000	8	...........	-32768,00
	867	21,7	6,32918E-001	1,97621E-005	0,00000E+000	6,32999E-001	0,00000E+000	8	...........	-32768,00
	870	21,775	6,29904E-001	1,93973E-005	0,00000E+000	6,29999E-001	0,00000E+000	8	...........	-32768,00
	873	21,85	6,26887E-001	1,90824E-005	0,00000E+000	6,26998E-001	0,00000E+000	8	...........	-32768,00
	876	21,925	6,23890E-001	1,87363E-005	0,00000E+000	6,23998E-001	0,00000E+000	8	...........	-32768,00
	879	22	6,20885E-001	1,84231E-005	0,00000E+000	6,20998E-001	0,00000E+000	8	...........	-32768,00
	882	22,075	6,17895E-001	1,80849E-005	0,00000E+000	6,17998E-001	0,00000E+000	8	...........	-32768,00
	885	22,15	6,14888E-001	1,77644E-005	0,00000E+000	6,14998E-001	0,00000E+000	8	...........	-32768,00
	888	22,225	6,11898E-001	1,74331E-005	0,00000E+000	6,11997E-001	0,00000E+000	8	...........	-32768,00
	891	22,3	6,08884E-001	1,71222E-005	0,00000E+000	6,08997E-001	0,00000E+000	8	...........	-32768,00
	894	22,375	6,05900E-001	1,68006E-005	0,00000E+000	6,05997E-001	0,00000E+000	8	...........	-32768,00
	897	22,45	6,02913E-001	1,64905E-005	0,00000E+000	6,02997E-001	0,00000E+000	8	...........	-32768,00
	900	22,525	5,99882E-001	1,61703E-005	0,00000E+000	5,99996E-001	0,00000E+000	8	...........	-32768,00
	903	22,6	5,96887E-001	1,58702E-005	0,00000E+000	5,96996E-001	0,00000E+000	8	...........	-32768,00
	906	22,675	5,93885E-001	1,55516E-005	0,00000E+000	5,93996E-001	0,00000E+000	8	...........	-32768,00
	909	22,75	5,90895E-001	1,52523E-005	0,00000E+000	5,90996E-001	0,00000E+000	8	...........	-32768,00
	912	22,825	5,87874E-001	1,49464E-005	0,00000E+000	5,87995E-001	0,00000E+000	8	...........	-32768,00
	915	22,9	5,84888E-001	1,46514E-005	0,00000E+000	5,84995E-001	0,00000E+000	8	...........	-32768,00
	918	22,975	5,81898E-001	1,43393E-005	0,00000E+000	5,81995E-001	0,00000E+000	8	...........	-32768,00
	921	23,05	5,78891E-001	1,40519E-005	0,00000E+000	5,78995E-001	0,00000E+000	8	...........	-32768,00
	924	23,125	5,75861E-001	1,37454E-005	0,00000E+000	5,75994E-001	0,00000E+000	8	...........	-32768,00
	927	23,2	5,72871E-001	1,34585E-005	0,00000E+000	5,72994E-001	0,00000E+000	8	...........	-32768,00
	930	23,275	5,69874E-001	1,31460E-005	0,00000E+000	5,69994E-001	0,00000E+000	8	...........	-32768,00
	933	23,35	5,66890E-001	1,28644E-005	0,00000E+000	5,67006E-001	0,00000E+000	8	...........	-32768,00
	936	23,425	5,63886E-001	1,25531E-005	0,00000E+000	5,64006E-001	0,00000E+000	8	...........	-32768,00
	939	23,5	5,60872E-001	1,22711E-005	0,00000E+000	5,61006E-001	0,00000E+000	8	...........	-32768,00
	942	23,575	5,57872E-001	1,19708E-005	0,00000E+000	5,58005E-001	0,00000E+000	8	...........	-32768,00
	945	23,65	5,54889E-001	1,16872E-005	0,00000E+000	5,55005E-001	0,00000E+000	8	...........	-32768,00
	948	23,725	5,51903E-001	1,13908E-005	0,00000E+000	5,52005E-001	0,00000E+000	8	...........	-32768,00
	951	23,8	5,48886E-001	1,11122E-005	0,00000E+000	5,49005E-001	0,00000E+000	8	...........	-32768,00
	954	23,875	5,45885E-001	1,08163E-005	0,00000E+000	5,46004E-001	0,00000E+000	8	...........	-32768,00
	957	23,95	5,42892E-001	1,05456E-005	0,00000E+000	5,43004E-001	0,00000E+000	8	...........	-32768,00
	960	24,025	5,39891E-001	1,02620E-005	0,00000E+000	5,40004E-001	0,00000E+000	8	...........	-32768,00
	963	24,1	5,36877E-001	1,00018E-005	0,00000E+000	5,37004E-001	0,00000E+000	8	...........	-32768,00
	966	24,175	5,33883E-001	9,72137E-006	0,00000E+000	5,34003E-001	0,00000E+000	8	...........	-32768,00
	969	24,25	5,30876E-001	9,47570E-006	0,00000E+000	5,31003E-001	0,00000E+000	8	...........	-32768,00
	972	24,325	5,27882E-001	9,21453E-006	0,00000E+000	5,28003E-001	0,00000E+000	8	...........	-32768,00
	975	24,4	5,24857E-001	8,97823E-006	0,00000E+000	5,25003E-001	0,00000E+000	8	...........	-32768,00
	978	24,475	5,21868E-001	8,72913E-006	0,00000E+000	5,22003E-001	0,00000E+000	8	...........	-32768,00
	981	24,55	5,18867E-001	8,50587E-006	0,00000E+000	5,19002E-001	0,00000E+000	8	...........	-32768,00
	984	24,625	5,15881E-001	8,26895E-006	0,00000E+000	5,16002E-001	0,00000E+000	8	...........	-32768,00
	987	24,7	5,12870E-001	8,05193E-006	0,00000E+000	5,13002E-001	0,00000E+000	7	...........	-32768,00
	990	24,775	5,09870E-001	7,82098E-006	0,00000E+000	5,10002E-001	0,00000E+000	7	...........	-32768,00
	993	24,85	5,06854E-001	7,61469E-006	0,00000E+000	5,07001E-001	0,00000E+000	7	...........	-32768,00
	996	24,925	5,03867E-001	7,38743E-006	0,00000E+000	5,04001E-001	0,00000E+000	7	...........	-32768,00
	999	25	5,00878E-001	7,17802E-006	0,00000E+000	5,01001E-001	0,00000E+000	7	...........	-32768,00
	1002	25,075	4,97852E-001	6,95349E-006	0,00000E+000	4,98001E-001	0,00000E+000	7	...........	-32768,00
	1005	25,15	4,94845E-001	6,74189E-006	0,00000E+000	4,95000E-001	0,00000E+000	7	...........	-32768,00
	1008	25,225	4,91865E-001	6,51212E-006	0,00000E+000	4,92000E-001	0,00000E+000	7	...........	-32768,00
	1011	25,3	4,88873E-001	6,30150E-006	0,00000E+000	4,89000E-001	0,00000E+000	7	...........	-32768,00
	1014	25,375	4,85849E-001	6,06614E-006	0,00000E+000	4,86000E-001	0,00000E+000	7	...........	-32768,00
	1017	25,45	4,82846E-001	5,84811E-006	0,00000E+000	4,82999E-001	0,00000E+000	7	...........	-32768,00
	1020	25,525	4,79866E-001	5,60873E-006	0,00000E+000	4,79999E-001	0,00000E+000	7	...........	-32768,00
	1023	25,6	4,76853E-001	5,37954E-006	0,00000E+000	4,76999E-001	0,00000E+000	7	...........	-32768,00
	1026	25,675	4,73849E-001	5,12860E-006	0,00000E+000	4,73999E-001	0,00000E+000	7	...........	-32768,00
	1029	25,75	4,70832E-001	4,89125E-006	0,00000E+000	4,70998E-001	0,00000E+000	7	...........	-32768,00
	1032	25,825	4,67851E-001	4,63209E-006	0,00000E+000	4,67998E-001	0,00000E+000	7	...........	-32768,00
	1035	25,9	4,64855E-001	4,37334E-006	0,00000E+000	4,64998E-001	0,00000E+000	7	...........	-32768,00
	1038	25,975	4,61859E-001	4,08958E-006	0,00000E+000	4,61998E-001	0,00000E+000	7	...........	-32768,00
	1041	26,05	4,58832E-001	3,79156E-006	0,00000E+000	4,58997E-001	0,00000E+000	7	...........	-32768,00
	1044	26,125	4,55847E-001	3,42952E-006	0,00000E+000	4,55997E-001	0,00000E+000	7	...........	-32768,00
	1047	26,2	4,52854E-001	3,00794E-006	0,00000E+000	4,52997E-001	0,00000E+000	7	...........	-32768,00
	1050	26,275	4,49851E-001	2,45979E-006	0,00000E+000	4,49997E-001	0,00000E+000	7	...........	-32768,00
	1053	26,35	4,46845E-001	1,72950E-006	0,00000E+000	4,46997E-001	0,00000E+000	7	...........	-32768,00
	1056	26,425	4,43838E-001	7,00653E-007	0,00000E+000	4,43996E-001	0,00000E+000	7	...........	-32768,00
	1059	26,5	4,40863E-001	-7,26155E-007	0,00000E+000	4,40996E-001	0,00000E+000	7	...........	-32768,00
	1062	26,575	4,37871E-001	-2,70462E-006	0,00000E+000	4,37996E-001	0,00000E+000	7	...........	-32768,00
	1065	26,65	4,34849E-001	-5,35889E-006	0,00000E+000	4,34996E-001	0,00000E+000	7	...........	-32768,00
	1068	26,725	4,31843E-001	-8,85904E-006	0,00000E+000	4,31995E-001	0,00000E+000	7	...........	-32768,00
	1071	26,8	4,28852E-001	-1,33313E-005	0,00000E+000	4,28995E-001	0,00000E+000	8	...........	-32768,00
	1074	26,875	4,25847E-001	-1,88542E-005	0,00000E+000	4,25995E-001	0,00000E+000	8	...........	-32768,00
	1077	26,95	4,22830E-001	-2,54239E-005	0,00000E+000	4,22995E-001	0,00000E+000	8	...........	-32768,00
	1080	27,025	4,19850E-001	-3,30123E-005	0,00000E+000	4,19994E-001	0,00000E+000	8	...........	-32768,00
	1083	27,1	4,16859E-001	-4,15181E-005	0,00000E+000	4,16994E-001	0,00000E+000	8	...........	-32768,00
	1086	27,175	4,13850E-001	-5,07643E-005	0,00000E+000	4,13994E-001	0,00000E+000	8	...........	-32768,00
	1089	27,25	4,10865E-001	-6,05374E-005	0,00000E+000	4,11006E-001	0,00000E+000	8	...........	-32768,00
	1092	27,325	4,07874E-001	-7,05875E-005	0,00000E+000	4,08006E-001	0,00000E+000	8	...........	-32768,00
	1095	27,4	4,04869E-001	-8,06567E-005	0,00000E+000	4,05006E-001	0,00000E+000	8	...........	-32768,00
	1098	27,475	4,01877E-001	-9,05061E-005	0,00000E+000	4,02005E-001	0,00000E+000	8	...........	-32768,00
	1101	27,55	3,98868E-001	-9,99248E-005	0,00000E+000	3,99005E-001	0,00000E+000	9	...........	-32768,00
	1104	27,625	3,95857E-001	-1,08673E-004	0,00000E+000	3,96005E-001	0,00000E+000	9	...........	-32768,00
	1107	27,7	3,92864E-001	-1,16612E-004	0,00000E+000	3,93005E-001	0,00000E+000	9	...........	-32768,00
	1110	27,775	3,89864E-001	-1,23663E-004	0,00000E+000	3,90004E-001	0,00000E+000	9	...........	-32768,00
	1113	27,85	3,86866E-001	-1,29768E-004	0,00000E+000	3,87004E-001	0,00000E+000	9	...........	-32768,00
	1116	27,925	3,83847E-001	-1,34847E-004	0,00000E+000	3,84004E-001	0,00000E+000	9	...........	-32768,00
	1119	28	3,80851E-001	-1,38983E-004	0,00000E+000	3,81004E-001	0,00000E+000	9	...........	-32768,00
	1122	28,075	3,77861E-001	-1,42112E-004	0,00000E+000	3,78003E-001	0,00000E+000	9	...........	-32768,00
	1125	28,15	3,74857E-001	-1,44404E-004	0,00000E+000	3,75003E-001	0,00000E+000	9	...........	-32768,00
	1128	28,225	3,71834E-001	-1,45884E-004	0,00000E+000	3,72003E-001	0,00000E+000	9	...........	-32768,00
	1131	28,3	3,68846E-001	-1,46659E-004	0,00000E+000	3,69003E-001	0,00000E+000	9	...........	-32768,00
	1134	28,375	3,65843E-001	-1,46724E-004	0,00000E+000	3,66003E-001	0,00000E+000	9	...........	-32768,00
	1137	28,45	3,62850E-001	-1,46292E-004	0,00000E+000	3,63002E-001	0,00000E+000	9	...........	-32768,00
	1140	28,525	3,59855E-001	-1,45330E-004	0,00000E+000	3,60002E-001	0,00000E+000	9	...........	-32768,00
	1143	28,6	3,56830E-001	-1,43984E-004	0,00000E+000	3,57002E-001	0,00000E+000	9	...........	-32768,00
	1146	28,675	3,53842E-001	-1,42282E-004	0,00000E+000	3,54002E-001	0,00000E+000	9	...........	-32768,00
	1149	28,75	3,50840E-001	-1,40319E-004	0,00000E+000	3,51001E-001	0,00000E+000	9	...........	-32768,00
	1152	28,825	3,47840E-001	-1,38149E-004	0,00000E+000	3,48001E-001	0,00000E+000	9	...........	-32768,00
	1155	28,9	3,44835E-001	-1,35813E-004	0,00000E+000	3,45001E-001	0,00000E+000	9	...........	-32768,00
	1158	28,975	3,41844E-001	-1,33379E-004	0,00000E+000	3,42001E-001	0,00000E+000	9	...........	-32768,00
	1161	29,05	3,38844E-001	-1,30903E-004	0,00000E+000	3,39000E-001	0,00000E+000	9	...........	-32768,00
	1164	29,125	3,35852E-001	-1,28340E-004	0,00000E+000	3,36000E-001	0,00000E+000	9	...........	-32768,00
	1167	29,2	3,32841E-001	-1,25769E-004	0,00000E+000	3,33000E-001	0,00000E+000	9	...........	-32768,00
	1170	29,275	3,29826E-001	-1,23173E-004	0,00000E+000	3,30000E-001	0,00000E+000	9	...........	-32768,00
	1173	29,35	3,26826E-001	-1,20662E-004	0,00000E+000	3,26999E-001	0,00000E+000	9	...........	-32768,00
	1176	29,425	3,23842E-001	-1,18136E-004	0,00000E+000	3,23999E-001	0,00000E+000	9	...........	-32768,00
	1179	29,5	3,20852E-001	-1,15696E-004	0,00000E+000	3,20999E-001	0,00000E+000	9	...........	-32768,00
	1182	29,575	3,17821E-001	-1,13257E-004	0,00000E+000	3,17999E-001	0,00000E+000	9	...........	-32768,00
	1185	29,65	3,14820E-001	-1,10989E-004	0,00000E+000	3,14998E-001	0,00000E+000	9	...........	-32768,00
	1188	29,725	3,11825E-001	-1,08735E-004	0,00000E+000	3,11998E-001	0,00000E+000	9	...........	-32768,00
	1191	29,8	3,08830E-001	-1,06541E-004	0,00000E+000	3,08998E-001	0,00000E+000	9	...........	-32768,00
	1194	29,875	3,05819E-001	-1,04438E-004	0,00000E+000	3,05998E-001	0,00000E+000	9	...........	-32768,00
	1197	29,95	3,02829E-001	-1,02403E-004	0,00000E+000	3,02997E-001	0,00000E+000	9	...........	-32768,00
	1200	30,025	2,99828E-001	-1,00416E-004	0,00000E+000	2,99997E-001	0,00000E+000	9	...........	-32768,00
	1203	30,1	2,96832E-001	-9,85749E-005	0,00000E+000	2,96997E-001	0,00000E+000	9	...........	-32768,00
	1206	30,175	2,93810E-001	-9,67294E-005	0,00000E+000	2,93997E-001	0,00000E+000	9	...........	-32768,00
	1209	30,25	2,90815E-001	-9,50201E-005	0,00000E+000	2,90996E-001	0,00000E+000	9	...........	-32768,00
	1212	30,325	2,87836E-001	-9,34143E-005	0,00000E+000	2,87996E-001	0,00000E+000	9	...........	-32768,00
	1215	30,4	2,84826E-001	-9,18645E-005	0,00000E+000	2,84996E-001	0,00000E+000	9	...........	-32768,00
	1218	30,475	2,81825E-001	-9,03272E-005	0,00000E+000	2,81996E-001	0,00000E+000	9	...........	-32768,00
	1221	30,55	2,78820E-001	-8,88868E-005	0,00000E+000	2,78996E-001	0,00000E+000	9	...........	-32768,00
	1224	30,625	2,75827E-001	-8,74853E-005	0,00000E+000	2,75995E-001	0,00000E+000	9	...........	-32768,00
	1227	30,7	2,72823E-001	-8,61529E-005	0,00000E+000	2,72995E-001	0,00000E+000	9	...........	-32768,00
	1230	30,775	2,69833E-001	-8,48278E-005	0,00000E+000	2,69995E-001	0,00000E+000	9	...........	-32768,00
	1233	30,85	2,66811E-001	-8,36084E-005	0,00000E+000	2,66995E-001	0,00000E+000	9	...........	-32768,00
	1236	30,925	2,63816E-001	-8,24482E-005	0,00000E+000	2,63994E-001	0,00000E+000	9	...........	-32768,00
	1239	31	2,60817E-001	-8,13069E-005	0,00000E+000	2,60994E-001	0,00000E+000	9	...........	-32768,00
	1242	31,075	2,57838E-001	-8,01850E-005	0,00000E+000	2,57994E-001	0,00000E+000	8	...........	-32768,00
	1245	31,15	2,54828E-001	-7,91745E-005	0,00000E+000	2,55006E-001	0,00000E+000	8	...........	-32768,00
	1248	31,225	2,51824E-001	-7,81392E-005	0,00000E+000	2,52006E-001	0,00000E+000	8	...........	-32768,00
	1251	31,3	2,48834E-001	-7,72411E-005	0,00000E+000	2,49006E-001	0,00000E+000	8	...........	-32768,00
	1254	31,375	2,45836E-001	-7,62927E-005	0,00000E+000	2,46005E-001	0,00000E+000	8	...........	-32768,00
	1257	31,45	2,42812E-001	-7,54399E-005	0,00000E+000	2,43005E-001	0,00000E+000	8	...........	-32768,00
	1260	31,525	2,39815E-001	-7,45778E-005	0,00000E+000	2,40005E-001	0,00000E+000	8	...........	-32768,00
	1263	31,6	2,36820E-001	-7,38259E-005	0,00000E+000	2,37005E-001	0,00000E+000	8	...........	-32768,00
	1266	31,675	2,33823E-001	-7,30286E-005	0,00000E+000	2,34004E-001	0,00000E+000	8	...........	-32768,00
	1269	31,75	2,30827E-001	-7,23165E-005	0,00000E+000	2,31004E-001	0,00000E+000	8	...........	-32768,00
	1272	31,825	2,27824E-001	-7,16174E-005	0,00000E+000	2,28004E-001	0,00000E+000	8	...........	-32768,00
	1275	31,9	2,24823E-001	-7,09990E-005	0,00000E+000	2,25004E-001	0,00000E+000	8	...........	-32768,00
	1278	31,975	2,21821E-001	-7,03533E-005	0,00000E+000	2,22003E-001	0,00000E+000	8	...........	-32768,00
	1281	32,05	2,18824E-001	-6,98322E-005	0,00000E+000	2,19003E-001	0,00000E+000	8	...........	-32768,00
	1284	32,125	2,15817E-001	-6,92615E-005	0,00000E+000	2,16003E-001	0,00000E+000	8	...........	-32768,00
	1287	32,2	2,12811E-001	-6,87543E-005	0,00000E+000	2,13003E-001	0,00000E+000	8	...........	-32768,00
	1290	32,275	2,09820E-001	-6,82550E-005	0,00000E+000	2,10003E-001	0,00000E+000	8	...........	-32768,00
	1293	32,35	2,06813E-001	-6,77836E-005	0,00000E+000	2,07002E-001	0,00000E+000	8	...........	-32768,00
	1296	32,425	2,03806E-001	-6,73096E-005	0,00000E+000	2,04002E-001	0,00000E+000	8	...........	-32768,00
	1299	32,5	2,00814E-001	-6,68876E-005	0,00000E+000	2,01002E-001	0,00000E+000	8	...........	-32768,00
	1302	32,575	1,97808E-001	-6,64199E-005	0,00000E+000	1,98002E-001	0,00000E+000	8	...........	-32768,00
	1305	32,65	1,94818E-001	-6,59628E-005	0,00000E+000	1,95001E-001	0,00000E+000	8	...........	-32768,00
	1308	32,725	1,91807E-001	-6,55182E-005	0,00000E+000	1,92001E-001	0,00000E+000	8	...........	-32768,00
	1311	32,8	1,88802E-001	-6,50619E-005	0,00000E+000	1,89001E-001	0,00000E+000	8	...........	-32768,00
	1314	32,875	1,85826E-001	-6,45476E-005	0,00000E+000	1,86001E-001	0,00000E+000	8	...........	-32768,00
	1317	32,95	1,82806E-001	-6,40808E-005	0,00000E+000	1,83000E-001	0,00000E+000	8	...........	-32768,00
	1320	33,025	1,79827E-001	-6,35987E-005	0,00000E+000	1,80000E-001	0,00000E+000	8	...........	-32768,00
	1323	33,1	1,76819E-001	-6,31227E-005	0,00000E+000	1,77000E-001	0,00000E+000	8	...........	-32768,00
	1326	33,175	1,73820E-001	-6,26604E-005	0,00000E+000	1,74000E-001	0,00000E+000	8	...........	-32768,00
	1329	33,25	1,70819E-001	-6,21771E-005	0,00000E+000	1,70999E-001	0,00000E+000	8	...........	-32768,00
	1332	33,325	1,67826E-001	-6,16909E-005	0,00000E+000	1,67999E-001	0,00000E+000	8	...........	-32768,00
	1335	33,4	1,64800E-001	-6,12351E-005	0,00000E+000	1,64999E-001	0,00000E+000	8	...........	-32768,00
	1338	33,475	1,61796E-001	-6,07141E-005	0,00000E+000	1,61999E-001	0,00000E+000	8	...........	-32768,00
	1341	33,55	1,58807E-001	-6,02872E-005	0,00000E+000	1,58998E-001	0,00000E+000	8	...........	-32768,00
	1344	33,625	1,55801E-001	-5,98305E-005	0,00000E+000	1,55998E-001	0,00000E+000	8	...........	-32768,00
	1347	33,7	1,52794E-001	-5,94240E-005	0,00000E+000	1,52998E-001	0,00000E+000	8	...........	-32768,00
	1350	33,775	1,49796E-001	-5,89798E-005	0,00000E+000	1,49998E-001	0,00000E+000	8	...........	-32768,00
	1353	33,85	1,46804E-001	-5,85969E-005	0,00000E+000	1,46997E-001	0,00000E+000	8	...........	-32768,00
	1356	33,925	1,43805E-001	-5,81883E-005	0,00000E+000	1,43997E-001	0,00000E+000	8	...........	-32768,00
	1359	34	1,40784E-001	-5,77874E-005	0,00000E+000	1,40997E-001	0,00000E+000	8	...........	-32768,00
	1362	34,075	1,37789E-001	-5,74192E-005	0,00000E+000	1,37997E-001	0,00000E+000	8	...........	-32768,00
	1365	34,15	1,34797E-001	-5,71604E-005	0,00000E+000	1,34997E-001	0,00000E+000	8	...........	-32768,00
	1368	34,225	1,31808E-001	-5,68449E-005	0,00000E+000	1,31996E-001	0,00000E+000	8	...........	-32768,00
	1371	34,3	1,28814E-001	-5,65543E-005	0,00000E+000	1,28996E-001	0,00000E+000	8	...........	-32768,00
	1374	34,375	1,25795E-001	-5,62055E-005	0,00000E+000	1,25996E-001	0,00000E+000	8	...........	-32768,00
	1377	34,45	1,22800E-001	-5,59509E-005	0,00000E+000	1,22996E-001	0,00000E+000	8	...........	-32768,00
	1380	34,525	1,19801E-001	-5,56857E-005	0,00000E+000	1,19995E-001	0,00000E+000	8	...........	-32768,00
	1383	34,6	1,16810E-001	-5,53805E-005	0,00000E+000	1,16995E-001	0,00000E+000	8	...........	-32768,00
	1386	34,675	1,13783E-001	-5,51997E-005	0,00000E+000	1,13995E-001	0,00000E+000	8	...........	-32768,00
	1389	34,75	1,10782E-001	-5,50458E-005	0,00000E+000	1,10995E-001	0,00000E+000	8	...........	-32768,00
	1392	34,825	1,07791E-001	-5,48962E-005	0,00000E+000	1,07994E-001	0,00000E+000	8	...........	-32768,00
	1395	34,9	1,04790E-001	-5,47186E-005	0,00000E+000	1,04994E-001	0,00000E+000	8	...........	-32768,00
	1398	34,975	1,01800E-001	-5,45576E-005	0,00000E+000	1,01994E-001	0,00000E+000	8	...........	-32768,00
	1400	35,025	9,97912E-002	-5,44067E-005	0,00000E+000	1,00006E-001	0,00000E+000	8	...........	-32768,00