File: HOPG_cv/5mM/AgNO3_HOPG_5mM_40mv_1_cv.DTA
EXPLAIN
TAG	CV
TITLE	LABEL	Cyclic Voltammetry	Test &Identifier
DATE	LABEL	30/4/2022	Date
TIME	LABEL	14:23:50	Time
NOTES	NOTES	2	&Notes...
	30/04/22 , 5mM  AgNO3

PSTAT	PSTAT	IFC1000-09004	Potentiostat
VINIT	POTEN	1,00000E-001	F	Initial &E (V)
VLIMIT1	POTEN	1,00000E-001	F	Scan Limit &1 (V)
VLIMIT2	POTEN	8,00000E-001	F	Scan Limit &2 (V)
VFINAL	POTEN	1,00000E-001	F	Final &E (V)
SCANRATE	QUANT	3,99999E+001	&Scan Rate (mV/s)
STEPSIZE	QUANT	1,00000E+000	St&ep Size (mV)
CYCLES	IQUANT	1	C&ycles (#)
IMODE	SELECTOR	0	I/E Range &Mode
IRANGE	QUANT	1,00000E-005	&Max Current (mA)
AREA	QUANT	1,00000E+000	Electrode &Area (cm^2)
ELECTRODETYPE	SELECTOR	0	Electrode Type
STRIPPING	TOGGLE	F	Used for Stripping
POLARITY	TOGGLE	F	Signal Polarity
CONDIT	TWOPARAM	F	1,50000E+001	0,00000E+000	Conditionin&g	Time(s)	E(V)
DELAY	TWOPARAM	F	3,00000E+001	0,00000E+000	Init. De&lay	Time(s)	Stab.(mV/s)
EQDELAY	QUANT	1,00000E+001	Equil. &Time (s)
IRCOMP	SELECTOR	0	IRCom&p
PFCOR	QUANT	5,00000E+001	PF Corr. (ohm)
SAMPLINGMODE	SELECTOR	1	Sampling &Mode
EOC	QUANT	0	Open Circuit (V)
PSTATMODEL	IQUANT	48	Pstat Model
PSTATSECTION	LABEL	IFC1000-09004	Pstat Section
PSTATSERIALNO	LABEL	09004	Pstat Serial Number
CTRLMODE	IQUANT	1	Control Mode
ELECTROMETER	IQUANT	0	RE=0 or CS=1
IESTAB	IQUANT	2	I/E Stability
CASPEED	IQUANT	4	Control Amp Speed
CONVENTION	IQUANT	1	Current Convention
ICHRANGE	IQUANT	2	Ich Range
ICHRANGEMODE	TOGGLE	F	Ich Auto Range
ICHOFFSETENABLE	TOGGLE	F	Ich Offset Enable
ICHOFFSET	QUANT	0	Ich Offset (V)
ICHFILTER	IQUANT	3	Ich Filter
VCHRANGE	IQUANT	2	Vch Range
VCHRANGEMODE	TOGGLE	F	Vch Auto Range
VCHOFFSETENABLE	TOGGLE	F	Vch Offset Enable
VCHOFFSET	QUANT	0	Vch Offset (V)
VCHFILTER	IQUANT	3	Vch Filter
IERANGELOWERLIMIT	IQUANT	4	I/E Range Lower Limit
IERANGEMODE	TOGGLE	T	I/E AutoRange
IERANGE	IQUANT	5	I/E Range
ACHSELECT	IQUANT	0	Ach Select
ACHRANGE	IQUANT	2	Ach Range
ACHOFFSETENABLE	TOGGLE	F	Ach Offset Enable
ACHOFFSET	QUANT	0	Ach Offset (V)
ACHFILTER	IQUANT	1	Ach Filter
CABLEID	IQUANT	14	Cable ID
DCCALDATE	LABEL	3/18/2022	DC Calibration Date
ACCALDATE	LABEL	3/10/2016	AC Calibration Date
FRAMEWORKVERSION	QUANT	7,05	Framework Version
INSTRUMENTVERSION	LABEL	4.21	Instrument Version
CURVE1	TABLE
	Pt	T	Vf	Im	Vu	Sig	Ach	IERange	Over	Temp
	#	s	V vs. Ref.	A	V	V	V	#	bits	deg C
	0	0,025	9,98766E-002	-1,09478E-005	0,00000E+000	1,00006E-001	0,00000E+000	7	....ih..i..	-32768,00
	3	0,1	1,02825E-001	-3,67507E-005	0,00000E+000	1,02994E-001	0,00000E+000	8	...........	-32768,00
	6	0,175	1,05824E-001	-3,53548E-005	0,00000E+000	1,05994E-001	0,00000E+000	8	...........	-32768,00
	9	0,25	1,08824E-001	-3,41162E-005	0,00000E+000	1,08994E-001	0,00000E+000	8	...........	-32768,00
	12	0,325	1,11826E-001	-3,30382E-005	0,00000E+000	1,11995E-001	0,00000E+000	8	...........	-32768,00
	15	0,4	1,14817E-001	-3,19982E-005	0,00000E+000	1,14995E-001	0,00000E+000	8	...........	-32768,00
	18	0,475	1,17840E-001	-3,09793E-005	0,00000E+000	1,17995E-001	0,00000E+000	8	...........	-32768,00
	21	0,55	1,20844E-001	-3,00556E-005	0,00000E+000	1,20995E-001	0,00000E+000	8	...........	-32768,00
	24	0,625	1,23825E-001	-2,91654E-005	0,00000E+000	1,23996E-001	0,00000E+000	8	...........	-32768,00
	27	0,7	1,26830E-001	-2,82413E-005	0,00000E+000	1,26996E-001	0,00000E+000	8	...........	-32768,00
	30	0,775	1,29842E-001	-2,74679E-005	0,00000E+000	1,29996E-001	0,00000E+000	8	...........	-32768,00
	33	0,85	1,32833E-001	-2,66856E-005	0,00000E+000	1,32996E-001	0,00000E+000	8	...........	-32768,00
	36	0,925	1,35832E-001	-2,59108E-005	0,00000E+000	1,35997E-001	0,00000E+000	8	...........	-32768,00
	39	1	1,38822E-001	-2,51747E-005	0,00000E+000	1,38997E-001	0,00000E+000	8	...........	-32768,00
	42	1,075	1,41836E-001	-2,44396E-005	0,00000E+000	1,41997E-001	0,00000E+000	8	...........	-32768,00
	45	1,15	1,44837E-001	-2,37440E-005	0,00000E+000	1,44997E-001	0,00000E+000	8	...........	-32768,00
	48	1,225	1,47838E-001	-2,31228E-005	0,00000E+000	1,47998E-001	0,00000E+000	8	...........	-32768,00
	51	1,3	1,50815E-001	-2,24471E-005	0,00000E+000	1,50998E-001	0,00000E+000	8	...........	-32768,00
	54	1,375	1,53829E-001	-2,17997E-005	0,00000E+000	1,53998E-001	0,00000E+000	8	...........	-32768,00
	57	1,45	1,56844E-001	-2,11853E-005	0,00000E+000	1,56998E-001	0,00000E+000	8	...........	-32768,00
	60	1,525	1,59839E-001	-2,06011E-005	0,00000E+000	1,59999E-001	0,00000E+000	8	...........	-32768,00
	63	1,6	1,62843E-001	-1,99685E-005	0,00000E+000	1,62999E-001	0,00000E+000	8	...........	-32768,00
	66	1,675	1,65834E-001	-1,94121E-005	0,00000E+000	1,65999E-001	0,00000E+000	8	...........	-32768,00
	69	1,75	1,68860E-001	-1,88001E-005	0,00000E+000	1,68999E-001	0,00000E+000	8	...........	-32768,00
	72	1,825	1,71856E-001	-1,82893E-005	0,00000E+000	1,71999E-001	0,00000E+000	8	...........	-32768,00
	75	1,9	1,74829E-001	-1,77539E-005	0,00000E+000	1,75000E-001	0,00000E+000	8	...........	-32768,00
	78	1,975	1,77837E-001	-1,72407E-005	0,00000E+000	1,78000E-001	0,00000E+000	8	...........	-32768,00
	81	2,05	1,80856E-001	-1,66892E-005	0,00000E+000	1,81000E-001	0,00000E+000	8	...........	-32768,00
	84	2,125	1,83855E-001	-1,61855E-005	0,00000E+000	1,84000E-001	0,00000E+000	8	...........	-32768,00
	87	2,2	1,86846E-001	-1,56750E-005	0,00000E+000	1,87001E-001	0,00000E+000	8	...........	-32768,00
	90	2,275	1,89842E-001	-1,51577E-005	0,00000E+000	1,90001E-001	0,00000E+000	8	...........	-32768,00
	93	2,35	1,92857E-001	-1,46479E-005	0,00000E+000	1,93001E-001	0,00000E+000	8	...........	-32768,00
	96	2,425	1,95859E-001	-1,41901E-005	0,00000E+000	1,96001E-001	0,00000E+000	8	...........	-32768,00
	99	2,5	1,98832E-001	-1,36912E-005	0,00000E+000	1,99002E-001	0,00000E+000	8	...........	-32768,00
	102	2,575	2,01845E-001	-1,32171E-005	0,00000E+000	2,02002E-001	0,00000E+000	8	...........	-32768,00
	105	2,65	2,04835E-001	-1,27428E-005	0,00000E+000	2,05002E-001	0,00000E+000	8	...........	-32768,00
	108	2,725	2,07845E-001	-1,22657E-005	0,00000E+000	2,08002E-001	0,00000E+000	8	...........	-32768,00
	111	2,8	2,10832E-001	-1,17912E-005	0,00000E+000	2,11003E-001	0,00000E+000	8	...........	-32768,00
	114	2,875	2,13842E-001	-1,13138E-005	0,00000E+000	2,14003E-001	0,00000E+000	8	...........	-32768,00
	117	2,95	2,16833E-001	-1,08155E-005	0,00000E+000	2,17003E-001	0,00000E+000	8	...........	-32768,00
	120	3,025	2,19854E-001	-1,03621E-005	0,00000E+000	2,20003E-001	0,00000E+000	8	...........	-32768,00
	123	3,1	2,22846E-001	-9,85849E-006	0,00000E+000	2,23004E-001	0,00000E+000	8	...........	-32768,00
	126	3,175	2,25839E-001	-9,42729E-006	0,00000E+000	2,26004E-001	0,00000E+000	8	...........	-32768,00
	129	3,25	2,28839E-001	-8,95246E-006	0,00000E+000	2,29004E-001	0,00000E+000	8	...........	-32768,00
	132	3,325	2,31862E-001	-8,46655E-006	0,00000E+000	2,32004E-001	0,00000E+000	8	...........	-32768,00
	135	3,4	2,34851E-001	-7,99527E-006	0,00000E+000	2,35005E-001	0,00000E+000	8	...........	-32768,00
	138	3,475	2,37862E-001	-7,54120E-006	0,00000E+000	2,38005E-001	0,00000E+000	7	...........	-32768,00
	141	3,55	2,40861E-001	-7,07038E-006	0,00000E+000	2,41005E-001	0,00000E+000	7	...........	-32768,00
	144	3,625	2,43866E-001	-6,60836E-006	0,00000E+000	2,44005E-001	0,00000E+000	7	...........	-32768,00
	147	3,7	2,46851E-001	-6,11830E-006	0,00000E+000	2,47005E-001	0,00000E+000	7	...........	-32768,00
	150	3,775	2,49847E-001	-5,68579E-006	0,00000E+000	2,50006E-001	0,00000E+000	7	...........	-32768,00
	153	3,85	2,52840E-001	-5,14711E-006	0,00000E+000	2,53006E-001	0,00000E+000	7	...........	-32768,00
	156	3,925	2,55848E-001	-4,69819E-006	0,00000E+000	2,56006E-001	0,00000E+000	7	...........	-32768,00
	159	4	2,58845E-001	-4,20390E-006	0,00000E+000	2,58994E-001	0,00000E+000	7	...........	-32768,00
	162	4,075	2,61850E-001	-3,74316E-006	0,00000E+000	2,61994E-001	0,00000E+000	7	...........	-32768,00
	165	4,15	2,64849E-001	-3,23899E-006	0,00000E+000	2,64994E-001	0,00000E+000	7	...........	-32768,00
	168	4,225	2,67844E-001	-2,78124E-006	0,00000E+000	2,67995E-001	0,00000E+000	7	...........	-32768,00
	171	4,3	2,70856E-001	-2,29341E-006	0,00000E+000	2,70995E-001	0,00000E+000	7	...........	-32768,00
	174	4,375	2,73851E-001	-1,80746E-006	0,00000E+000	2,73995E-001	0,00000E+000	7	...........	-32768,00
	177	4,45	2,76842E-001	-1,30037E-006	0,00000E+000	2,76995E-001	0,00000E+000	7	...........	-32768,00
	180	4,525	2,79828E-001	-8,45289E-007	0,00000E+000	2,79996E-001	0,00000E+000	7	...........	-32768,00
	183	4,6	2,82866E-001	-3,23572E-007	0,00000E+000	2,82996E-001	0,00000E+000	7	...........	-32768,00
	186	4,675	2,85858E-001	1,60898E-007	0,00000E+000	2,85996E-001	0,00000E+000	7	...........	-32768,00
	189	4,75	2,88847E-001	6,70481E-007	0,00000E+000	2,88996E-001	0,00000E+000	7	...........	-32768,00
	192	4,825	2,91840E-001	1,16394E-006	0,00000E+000	2,91997E-001	0,00000E+000	7	...........	-32768,00
	195	4,9	2,94828E-001	1,68076E-006	0,00000E+000	2,94997E-001	0,00000E+000	7	...........	-32768,00
	198	4,975	2,97847E-001	2,18018E-006	0,00000E+000	2,97997E-001	0,00000E+000	7	...........	-32768,00
	201	5,05	3,00854E-001	2,70737E-006	0,00000E+000	3,00997E-001	0,00000E+000	7	...........	-32768,00
	204	5,125	3,03844E-001	3,22471E-006	0,00000E+000	3,03998E-001	0,00000E+000	7	...........	-32768,00
	207	5,2	3,06841E-001	3,74807E-006	0,00000E+000	3,06998E-001	0,00000E+000	7	...........	-32768,00
	210	5,275	3,09846E-001	4,27663E-006	0,00000E+000	3,09998E-001	0,00000E+000	7	...........	-32768,00
	213	5,35	3,12859E-001	4,82340E-006	0,00000E+000	3,12998E-001	0,00000E+000	7	...........	-32768,00
	216	5,425	3,15846E-001	5,37122E-006	0,00000E+000	3,15998E-001	0,00000E+000	7	...........	-32768,00
	219	5,5	3,18835E-001	5,93477E-006	0,00000E+000	3,18999E-001	0,00000E+000	7	...........	-32768,00
	222	5,575	3,21861E-001	6,46972E-006	0,00000E+000	3,21999E-001	0,00000E+000	7	...........	-32768,00
	225	5,65	3,24847E-001	7,04015E-006	0,00000E+000	3,24999E-001	0,00000E+000	7	...........	-32768,00
	228	5,725	3,27855E-001	7,62000E-006	0,00000E+000	3,27999E-001	0,00000E+000	7	...........	-32768,00
	231	5,8	3,30848E-001	8,22460E-006	0,00000E+000	3,31000E-001	0,00000E+000	7	...........	-32768,00
	234	5,875	3,33860E-001	8,81290E-006	0,00000E+000	3,34000E-001	0,00000E+000	7	...........	-32768,00
	237	5,95	3,36865E-001	9,42050E-006	0,00000E+000	3,37000E-001	0,00000E+000	8	...........	-32768,00
	240	6,025	3,39860E-001	1,00308E-005	0,00000E+000	3,40000E-001	0,00000E+000	8	...........	-32768,00
	243	6,1	3,42858E-001	1,06570E-005	0,00000E+000	3,43001E-001	0,00000E+000	8	...........	-32768,00
	246	6,175	3,45856E-001	1,13026E-005	0,00000E+000	3,46001E-001	0,00000E+000	8	...........	-32768,00
	249	6,25	3,48858E-001	1,19538E-005	0,00000E+000	3,49001E-001	0,00000E+000	8	...........	-32768,00
	252	6,325	3,51853E-001	1,26077E-005	0,00000E+000	3,52001E-001	0,00000E+000	8	...........	-32768,00
	255	6,4	3,54849E-001	1,33012E-005	0,00000E+000	3,55002E-001	0,00000E+000	8	...........	-32768,00
	258	6,475	3,57841E-001	1,40161E-005	0,00000E+000	3,58002E-001	0,00000E+000	8	...........	-32768,00
	261	6,55	3,60864E-001	1,47127E-005	0,00000E+000	3,61002E-001	0,00000E+000	8	...........	-32768,00
	264	6,625	3,63858E-001	1,54337E-005	0,00000E+000	3,64002E-001	0,00000E+000	8	...........	-32768,00
	267	6,7	3,66855E-001	1,61741E-005	0,00000E+000	3,67003E-001	0,00000E+000	8	...........	-32768,00
	270	6,775	3,69853E-001	1,69368E-005	0,00000E+000	3,70003E-001	0,00000E+000	8	...........	-32768,00
	273	6,85	3,72876E-001	1,77385E-005	0,00000E+000	3,73003E-001	0,00000E+000	8	...........	-32768,00
	276	6,925	3,75860E-001	1,85264E-005	0,00000E+000	3,76003E-001	0,00000E+000	8	...........	-32768,00
	279	7	3,78863E-001	1,93984E-005	0,00000E+000	3,79004E-001	0,00000E+000	8	...........	-32768,00
	282	7,075	3,81864E-001	2,02397E-005	0,00000E+000	3,82004E-001	0,00000E+000	8	...........	-32768,00
	285	7,15	3,84879E-001	2,11342E-005	0,00000E+000	3,85004E-001	0,00000E+000	8	...........	-32768,00
	288	7,225	3,87874E-001	2,20300E-005	0,00000E+000	3,88004E-001	0,00000E+000	8	...........	-32768,00
	291	7,3	3,90874E-001	2,29627E-005	0,00000E+000	3,91005E-001	0,00000E+000	8	...........	-32768,00
	294	7,375	3,93859E-001	2,39329E-005	0,00000E+000	3,94005E-001	0,00000E+000	8	...........	-32768,00
	297	7,45	3,96865E-001	2,49103E-005	0,00000E+000	3,97005E-001	0,00000E+000	8	...........	-32768,00
	300	7,525	3,99874E-001	2,59280E-005	0,00000E+000	4,00005E-001	0,00000E+000	8	...........	-32768,00
	303	7,6	4,02880E-001	2,69609E-005	0,00000E+000	4,03005E-001	0,00000E+000	8	...........	-32768,00
	306	7,675	4,05869E-001	2,80205E-005	0,00000E+000	4,06006E-001	0,00000E+000	8	...........	-32768,00
	309	7,75	4,08869E-001	2,90947E-005	0,00000E+000	4,09006E-001	0,00000E+000	8	...........	-32768,00
	312	7,825	4,11870E-001	3,01699E-005	0,00000E+000	4,12006E-001	0,00000E+000	8	...........	-32768,00
	315	7,9	4,14856E-001	3,12584E-005	0,00000E+000	4,14994E-001	0,00000E+000	8	...........	-32768,00
	318	7,975	4,17859E-001	3,23908E-005	0,00000E+000	4,17994E-001	0,00000E+000	8	...........	-32768,00
	321	8,05	4,20853E-001	3,34831E-005	0,00000E+000	4,20994E-001	0,00000E+000	8	...........	-32768,00
	324	8,125	4,23874E-001	3,45923E-005	0,00000E+000	4,23995E-001	0,00000E+000	8	...........	-32768,00
	327	8,2	4,26867E-001	3,56687E-005	0,00000E+000	4,26995E-001	0,00000E+000	8	...........	-32768,00
	330	8,275	4,29872E-001	3,67694E-005	0,00000E+000	4,29995E-001	0,00000E+000	8	...........	-32768,00
	333	8,35	4,32860E-001	3,78599E-005	0,00000E+000	4,32995E-001	0,00000E+000	8	...........	-32768,00
	336	8,425	4,35869E-001	3,89444E-005	0,00000E+000	4,35996E-001	0,00000E+000	8	...........	-32768,00
	339	8,5	4,38857E-001	4,00549E-005	0,00000E+000	4,38996E-001	0,00000E+000	8	...........	-32768,00
	342	8,575	4,41865E-001	4,11408E-005	0,00000E+000	4,41996E-001	0,00000E+000	8	...........	-32768,00
	345	8,65	4,44850E-001	4,22415E-005	0,00000E+000	4,44996E-001	0,00000E+000	8	...........	-32768,00
	348	8,725	4,47845E-001	4,33505E-005	0,00000E+000	4,47997E-001	0,00000E+000	8	...........	-32768,00
	351	8,8	4,50872E-001	4,44586E-005	0,00000E+000	4,50997E-001	0,00000E+000	8	...........	-32768,00
	354	8,875	4,53855E-001	4,55990E-005	0,00000E+000	4,53997E-001	0,00000E+000	8	...........	-32768,00
	357	8,95	4,56862E-001	4,67065E-005	0,00000E+000	4,56997E-001	0,00000E+000	8	...........	-32768,00
	360	9,025	4,59842E-001	4,78679E-005	0,00000E+000	4,59998E-001	0,00000E+000	8	...........	-32768,00
	363	9,1	4,62879E-001	4,89743E-005	0,00000E+000	4,62998E-001	0,00000E+000	8	...........	-32768,00
	366	9,175	4,65860E-001	5,01504E-005	0,00000E+000	4,65998E-001	0,00000E+000	8	...........	-32768,00
	369	9,25	4,68860E-001	5,13042E-005	0,00000E+000	4,68998E-001	0,00000E+000	8	...........	-32768,00
	372	9,325	4,71851E-001	5,24743E-005	0,00000E+000	4,71999E-001	0,00000E+000	8	...........	-32768,00
	375	9,4	4,74889E-001	5,36404E-005	0,00000E+000	4,74999E-001	0,00000E+000	8	...........	-32768,00
	378	9,475	4,77883E-001	5,48352E-005	0,00000E+000	4,77999E-001	0,00000E+000	8	...........	-32768,00
	381	9,55	4,80863E-001	5,60328E-005	0,00000E+000	4,80999E-001	0,00000E+000	8	...........	-32768,00
	384	9,625	4,83862E-001	5,72516E-005	0,00000E+000	4,83999E-001	0,00000E+000	8	...........	-32768,00
	387	9,7	4,86864E-001	5,84847E-005	0,00000E+000	4,87000E-001	0,00000E+000	8	...........	-32768,00
	390	9,775	4,89873E-001	5,98068E-005	0,00000E+000	4,90000E-001	0,00000E+000	8	...........	-32768,00
	393	9,85	4,92865E-001	6,11028E-005	0,00000E+000	4,93000E-001	0,00000E+000	8	...........	-32768,00
	396	9,925	4,95862E-001	6,25049E-005	0,00000E+000	4,96000E-001	0,00000E+000	8	...........	-32768,00
	399	10	4,98859E-001	6,38779E-005	0,00000E+000	4,99001E-001	0,00000E+000	8	...........	-32768,00
	402	10,075	5,01874E-001	6,54143E-005	0,00000E+000	5,02001E-001	0,00000E+000	8	...........	-32768,00
	405	10,15	5,04876E-001	6,69313E-005	0,00000E+000	5,05001E-001	0,00000E+000	8	...........	-32768,00
	408	10,225	5,07870E-001	6,85489E-005	0,00000E+000	5,08001E-001	0,00000E+000	8	...........	-32768,00
	411	10,3	5,10864E-001	7,02272E-005	0,00000E+000	5,11002E-001	0,00000E+000	8	...........	-32768,00
	414	10,375	5,13886E-001	7,20083E-005	0,00000E+000	5,14002E-001	0,00000E+000	8	...........	-32768,00
	417	10,45	5,16887E-001	7,38420E-005	0,00000E+000	5,17002E-001	0,00000E+000	8	...........	-32768,00
	420	10,525	5,19884E-001	7,57550E-005	0,00000E+000	5,20002E-001	0,00000E+000	8	...........	-32768,00
	423	10,6	5,22883E-001	7,77808E-005	0,00000E+000	5,23003E-001	0,00000E+000	8	...........	-32768,00
	426	10,675	5,25889E-001	7,99393E-005	0,00000E+000	5,26003E-001	0,00000E+000	8	...........	-32768,00
	429	10,75	5,28885E-001	8,21615E-005	0,00000E+000	5,29003E-001	0,00000E+000	8	...........	-32768,00
	432	10,825	5,31886E-001	8,45333E-005	0,00000E+000	5,32003E-001	0,00000E+000	8	...........	-32768,00
	435	10,9	5,34879E-001	8,69601E-005	0,00000E+000	5,35004E-001	0,00000E+000	8	...........	-32768,00
	438	10,975	5,37872E-001	8,95795E-005	0,00000E+000	5,38004E-001	0,00000E+000	8	...........	-32768,00
	441	11,05	5,40899E-001	9,21725E-005	0,00000E+000	5,41004E-001	0,00000E+000	9	...........	-32768,00
	444	11,125	5,43899E-001	9,50614E-005	0,00000E+000	5,44004E-001	0,00000E+000	9	...........	-32768,00
	447	11,2	5,46892E-001	9,79048E-005	0,00000E+000	5,47005E-001	0,00000E+000	9	...........	-32768,00
	450	11,275	5,49887E-001	1,00922E-004	0,00000E+000	5,50005E-001	0,00000E+000	9	...........	-32768,00
	453	11,35	5,52896E-001	1,04037E-004	0,00000E+000	5,53005E-001	0,00000E+000	9	...........	-32768,00
	456	11,425	5,55879E-001	1,07299E-004	0,00000E+000	5,56005E-001	0,00000E+000	9	...........	-32768,00
	459	11,5	5,58879E-001	1,10504E-004	0,00000E+000	5,59005E-001	0,00000E+000	9	...........	-32768,00
	462	11,575	5,61883E-001	1,13835E-004	0,00000E+000	5,62006E-001	0,00000E+000	9	...........	-32768,00
	465	11,65	5,64908E-001	1,17159E-004	0,00000E+000	5,65006E-001	0,00000E+000	9	...........	-32768,00
	468	11,725	5,67910E-001	1,20462E-004	0,00000E+000	5,68006E-001	0,00000E+000	9	...........	-32768,00
	471	11,8	5,70882E-001	1,23836E-004	0,00000E+000	5,70994E-001	0,00000E+000	9	...........	-32768,00
	474	11,875	5,73884E-001	1,27305E-004	0,00000E+000	5,73994E-001	0,00000E+000	9	...........	-32768,00
	477	11,95	5,76870E-001	1,31018E-004	0,00000E+000	5,76994E-001	0,00000E+000	9	...........	-32768,00
	480	12,025	5,79898E-001	1,35144E-004	0,00000E+000	5,79995E-001	0,00000E+000	9	...........	-32768,00
	483	12,1	5,82891E-001	1,39596E-004	0,00000E+000	5,82995E-001	0,00000E+000	9	...........	-32768,00
	486	12,175	5,85886E-001	1,44378E-004	0,00000E+000	5,85995E-001	0,00000E+000	9	...........	-32768,00
	489	12,25	5,88878E-001	1,49552E-004	0,00000E+000	5,88995E-001	0,00000E+000	9	...........	-32768,00
	492	12,325	5,91891E-001	1,54970E-004	0,00000E+000	5,91996E-001	0,00000E+000	9	...........	-32768,00
	495	12,4	5,94889E-001	1,60722E-004	0,00000E+000	5,94996E-001	0,00000E+000	9	...........	-32768,00
	498	12,475	5,97909E-001	1,66405E-004	0,00000E+000	5,97996E-001	0,00000E+000	9	...........	-32768,00
	501	12,55	6,00877E-001	1,72348E-004	0,00000E+000	6,00996E-001	0,00000E+000	9	...........	-32768,00
	504	12,625	6,03909E-001	1,78457E-004	0,00000E+000	6,03997E-001	0,00000E+000	9	...........	-32768,00
	507	12,7	6,06907E-001	1,84422E-004	0,00000E+000	6,06997E-001	0,00000E+000	9	...........	-32768,00
	510	12,775	6,09897E-001	1,90480E-004	0,00000E+000	6,09997E-001	0,00000E+000	9	...........	-32768,00
	513	12,85	6,12894E-001	1,96097E-004	0,00000E+000	6,12997E-001	0,00000E+000	9	...........	-32768,00
	516	12,925	6,15905E-001	2,01526E-004	0,00000E+000	6,15998E-001	0,00000E+000	9	...........	-32768,00
	519	13	6,18907E-001	2,06268E-004	0,00000E+000	6,18998E-001	0,00000E+000	9	...........	-32768,00
	522	13,075	6,21891E-001	2,10158E-004	0,00000E+000	6,21998E-001	0,00000E+000	9	...........	-32768,00
	525	13,15	6,24891E-001	2,12605E-004	0,00000E+000	6,24998E-001	0,00000E+000	9	...........	-32768,00
	528	13,225	6,27893E-001	2,13330E-004	0,00000E+000	6,27999E-001	0,00000E+000	9	...........	-32768,00
	531	13,3	6,30912E-001	2,11480E-004	0,00000E+000	6,30999E-001	0,00000E+000	9	...........	-32768,00
	534	13,375	6,33907E-001	2,06729E-004	0,00000E+000	6,33999E-001	0,00000E+000	9	...........	-32768,00
	537	13,45	6,36912E-001	1,98097E-004	0,00000E+000	6,36999E-001	0,00000E+000	9	...........	-32768,00
	540	13,525	6,39905E-001	1,86090E-004	0,00000E+000	6,40000E-001	0,00000E+000	9	...........	-32768,00
	543	13,6	6,42918E-001	1,72338E-004	0,00000E+000	6,43000E-001	0,00000E+000	9	...........	-32768,00
	546	13,675	6,45918E-001	1,60531E-004	0,00000E+000	6,46000E-001	0,00000E+000	9	...........	-32768,00
	549	13,75	6,48909E-001	1,52095E-004	0,00000E+000	6,49000E-001	0,00000E+000	9	...........	-32768,00
	552	13,825	6,51906E-001	1,46617E-004	0,00000E+000	6,52000E-001	0,00000E+000	9	...........	-32768,00
	555	13,9	6,54918E-001	1,42858E-004	0,00000E+000	6,55001E-001	0,00000E+000	9	...........	-32768,00
	558	13,975	6,57907E-001	1,40183E-004	0,00000E+000	6,58001E-001	0,00000E+000	9	...........	-32768,00
	561	14,05	6,60913E-001	1,37927E-004	0,00000E+000	6,61001E-001	0,00000E+000	9	...........	-32768,00
	564	14,125	6,63900E-001	1,35994E-004	0,00000E+000	6,64001E-001	0,00000E+000	9	...........	-32768,00
	567	14,2	6,66919E-001	1,34675E-004	0,00000E+000	6,67002E-001	0,00000E+000	9	...........	-32768,00
	570	14,275	6,69932E-001	1,33802E-004	0,00000E+000	6,70002E-001	0,00000E+000	9	...........	-32768,00
	573	14,35	6,72910E-001	1,33188E-004	0,00000E+000	6,73002E-001	0,00000E+000	9	...........	-32768,00
	576	14,425	6,75914E-001	1,32661E-004	0,00000E+000	6,76002E-001	0,00000E+000	9	...........	-32768,00
	579	14,5	6,78900E-001	1,32610E-004	0,00000E+000	6,79003E-001	0,00000E+000	9	...........	-32768,00
	582	14,575	6,81924E-001	1,32401E-004	0,00000E+000	6,82003E-001	0,00000E+000	9	...........	-32768,00
	585	14,65	6,84930E-001	1,32332E-004	0,00000E+000	6,85003E-001	0,00000E+000	9	...........	-32768,00
	588	14,725	6,87906E-001	1,32470E-004	0,00000E+000	6,88003E-001	0,00000E+000	9	...........	-32768,00
	591	14,8	6,90935E-001	1,32605E-004	0,00000E+000	6,91004E-001	0,00000E+000	9	...........	-32768,00
	594	14,875	6,93933E-001	1,32864E-004	0,00000E+000	6,94004E-001	0,00000E+000	9	...........	-32768,00
	597	14,95	6,96928E-001	1,33089E-004	0,00000E+000	6,97004E-001	0,00000E+000	9	...........	-32768,00
	600	15,025	6,99930E-001	1,33403E-004	0,00000E+000	7,00004E-001	0,00000E+000	9	...........	-32768,00
	603	15,1	7,02915E-001	1,33841E-004	0,00000E+000	7,03005E-001	0,00000E+000	9	...........	-32768,00
	606	15,175	7,05931E-001	1,34226E-004	0,00000E+000	7,06005E-001	0,00000E+000	9	...........	-32768,00
	609	15,25	7,08932E-001	1,34849E-004	0,00000E+000	7,09005E-001	0,00000E+000	9	...........	-32768,00
	612	15,325	7,11924E-001	1,35309E-004	0,00000E+000	7,12005E-001	0,00000E+000	9	...........	-32768,00
	615	15,4	7,14916E-001	1,35836E-004	0,00000E+000	7,15006E-001	0,00000E+000	9	...........	-32768,00
	618	15,475	7,17925E-001	1,36538E-004	0,00000E+000	7,18006E-001	0,00000E+000	9	...........	-32768,00
	621	15,55	7,20944E-001	1,37120E-004	0,00000E+000	7,21006E-001	0,00000E+000	9	...........	-32768,00
	624	15,625	7,23953E-001	1,37792E-004	0,00000E+000	7,24006E-001	0,00000E+000	9	...........	-32768,00
	627	15,7	7,26915E-001	1,38433E-004	0,00000E+000	7,26994E-001	0,00000E+000	9	...........	-32768,00
	630	15,775	7,29916E-001	1,39118E-004	0,00000E+000	7,29994E-001	0,00000E+000	9	...........	-32768,00
	633	15,85	7,32925E-001	1,39825E-004	0,00000E+000	7,32994E-001	0,00000E+000	9	...........	-32768,00
	636	15,925	7,35917E-001	1,40406E-004	0,00000E+000	7,35995E-001	0,00000E+000	9	...........	-32768,00
	639	16	7,38930E-001	1,41207E-004	0,00000E+000	7,38995E-001	0,00000E+000	9	...........	-32768,00
	642	16,075	7,41921E-001	1,41977E-004	0,00000E+000	7,41995E-001	0,00000E+000	9	...........	-32768,00
	645	16,15	7,44934E-001	1,42654E-004	0,00000E+000	7,44995E-001	0,00000E+000	9	...........	-32768,00
	648	16,225	7,47946E-001	1,43488E-004	0,00000E+000	7,47996E-001	0,00000E+000	9	...........	-32768,00
	651	16,3	7,50942E-001	1,44203E-004	0,00000E+000	7,50996E-001	0,00000E+000	9	...........	-32768,00
	654	16,375	7,53932E-001	1,45744E-004	0,00000E+000	7,53996E-001	0,00000E+000	9	...........	-32768,00
	657	16,45	7,56948E-001	1,45793E-004	0,00000E+000	7,56996E-001	0,00000E+000	9	...........	-32768,00
	660	16,525	7,59939E-001	1,46564E-004	0,00000E+000	7,59997E-001	0,00000E+000	9	...........	-32768,00
	663	16,6	7,62939E-001	1,47365E-004	0,00000E+000	7,62997E-001	0,00000E+000	9	...........	-32768,00
	666	16,675	7,65946E-001	1,48354E-004	0,00000E+000	7,65997E-001	0,00000E+000	9	...........	-32768,00
	669	16,75	7,68929E-001	1,49110E-004	0,00000E+000	7,68997E-001	0,00000E+000	9	...........	-32768,00
	672	16,825	7,71939E-001	1,50049E-004	0,00000E+000	7,71998E-001	0,00000E+000	9	...........	-32768,00
	675	16,9	7,74955E-001	1,51053E-004	0,00000E+000	7,74998E-001	0,00000E+000	9	...........	-32768,00
	678	16,975	7,77936E-001	1,52018E-004	0,00000E+000	7,77998E-001	0,00000E+000	9	...........	-32768,00
	681	17,05	7,80944E-001	1,52646E-004	0,00000E+000	7,80998E-001	0,00000E+000	9	...........	-32768,00
	684	17,125	7,83953E-001	1,53605E-004	0,00000E+000	7,83999E-001	0,00000E+000	9	...........	-32768,00
	687	17,2	7,86946E-001	1,54637E-004	0,00000E+000	7,86999E-001	0,00000E+000	9	...........	-32768,00
	690	17,275	7,89948E-001	1,55477E-004	0,00000E+000	7,89999E-001	0,00000E+000	9	...........	-32768,00
	693	17,35	7,92940E-001	1,56304E-004	0,00000E+000	7,92999E-001	0,00000E+000	9	...........	-32768,00
	696	17,425	7,95965E-001	1,57354E-004	0,00000E+000	7,96000E-001	0,00000E+000	9	...........	-32768,00
	699	17,5	7,98945E-001	1,58202E-004	0,00000E+000	7,99000E-001	0,00000E+000	9	...........	-32768,00
	702	17,575	7,97964E-001	1,56563E-004	0,00000E+000	7,98000E-001	0,00000E+000	9	...........	-32768,00
	705	17,65	7,94973E-001	1,54219E-004	0,00000E+000	7,94999E-001	0,00000E+000	9	...........	-32768,00
	708	17,725	7,91948E-001	1,51644E-004	0,00000E+000	7,91999E-001	0,00000E+000	9	...........	-32768,00
	711	17,8	7,88945E-001	1,49405E-004	0,00000E+000	7,88999E-001	0,00000E+000	9	...........	-32768,00
	714	17,875	7,85953E-001	1,47288E-004	0,00000E+000	7,85999E-001	0,00000E+000	9	...........	-32768,00
	717	17,95	7,82950E-001	1,45139E-004	0,00000E+000	7,82998E-001	0,00000E+000	9	...........	-32768,00
	720	18,025	7,79939E-001	1,43163E-004	0,00000E+000	7,79998E-001	0,00000E+000	9	...........	-32768,00
	723	18,1	7,76937E-001	1,41294E-004	0,00000E+000	7,76998E-001	0,00000E+000	9	...........	-32768,00
	726	18,175	7,73948E-001	1,39336E-004	0,00000E+000	7,73998E-001	0,00000E+000	9	...........	-32768,00
	729	18,25	7,70948E-001	1,37679E-004	0,00000E+000	7,70998E-001	0,00000E+000	9	...........	-32768,00
	732	18,325	7,67923E-001	1,35897E-004	0,00000E+000	7,67997E-001	0,00000E+000	9	...........	-32768,00
	735	18,4	7,64930E-001	1,34219E-004	0,00000E+000	7,64997E-001	0,00000E+000	9	...........	-32768,00
	738	18,475	7,61933E-001	1,32533E-004	0,00000E+000	7,61997E-001	0,00000E+000	9	...........	-32768,00
	741	18,55	7,58930E-001	1,30959E-004	0,00000E+000	7,58997E-001	0,00000E+000	9	...........	-32768,00
	744	18,625	7,55927E-001	1,29424E-004	0,00000E+000	7,55996E-001	0,00000E+000	9	...........	-32768,00
	747	18,7	7,52934E-001	1,27960E-004	0,00000E+000	7,52996E-001	0,00000E+000	9	...........	-32768,00
	750	18,775	7,49935E-001	1,26463E-004	0,00000E+000	7,49996E-001	0,00000E+000	9	...........	-32768,00
	753	18,85	7,46933E-001	1,25012E-004	0,00000E+000	7,46996E-001	0,00000E+000	9	...........	-32768,00
	756	18,925	7,43939E-001	1,23562E-004	0,00000E+000	7,43995E-001	0,00000E+000	9	...........	-32768,00
	759	19	7,40925E-001	1,22161E-004	0,00000E+000	7,40995E-001	0,00000E+000	9	...........	-32768,00
	762	19,075	7,37932E-001	1,20784E-004	0,00000E+000	7,37995E-001	0,00000E+000	9	...........	-32768,00
	765	19,15	7,34933E-001	1,19392E-004	0,00000E+000	7,34995E-001	0,00000E+000	9	...........	-32768,00
	768	19,225	7,31925E-001	1,18037E-004	0,00000E+000	7,31994E-001	0,00000E+000	9	...........	-32768,00
	771	19,3	7,28930E-001	1,16748E-004	0,00000E+000	7,28994E-001	0,00000E+000	9	...........	-32768,00
	774	19,375	7,25935E-001	1,15478E-004	0,00000E+000	7,25994E-001	0,00000E+000	9	...........	-32768,00
	777	19,45	7,22935E-001	1,14189E-004	0,00000E+000	7,23006E-001	0,00000E+000	9	...........	-32768,00
	780	19,525	7,19943E-001	1,13179E-004	0,00000E+000	7,20006E-001	0,00000E+000	9	...........	-32768,00
	783	19,6	7,16910E-001	1,11917E-004	0,00000E+000	7,17006E-001	0,00000E+000	9	...........	-32768,00
	786	19,675	7,13928E-001	1,10897E-004	0,00000E+000	7,14005E-001	0,00000E+000	9	...........	-32768,00
	789	19,75	7,10922E-001	1,09488E-004	0,00000E+000	7,11005E-001	0,00000E+000	9	...........	-32768,00
	792	19,825	7,07928E-001	1,08274E-004	0,00000E+000	7,08005E-001	0,00000E+000	9	...........	-32768,00
	795	19,9	7,04909E-001	1,07108E-004	0,00000E+000	7,05005E-001	0,00000E+000	9	...........	-32768,00
	798	19,975	7,01920E-001	1,05856E-004	0,00000E+000	7,02004E-001	0,00000E+000	9	...........	-32768,00
	801	20,05	6,98934E-001	1,04856E-004	0,00000E+000	6,99004E-001	0,00000E+000	9	...........	-32768,00
	804	20,125	6,95928E-001	1,03469E-004	0,00000E+000	6,96004E-001	0,00000E+000	9	...........	-32768,00
	807	20,2	6,92932E-001	1,02279E-004	0,00000E+000	6,93004E-001	0,00000E+000	9	...........	-32768,00
	810	20,275	6,89916E-001	1,01098E-004	0,00000E+000	6,90004E-001	0,00000E+000	9	...........	-32768,00
	813	20,35	6,86913E-001	1,00018E-004	0,00000E+000	6,87003E-001	0,00000E+000	9	...........	-32768,00
	816	20,425	6,83922E-001	9,88691E-005	0,00000E+000	6,84003E-001	0,00000E+000	9	...........	-32768,00
	819	20,5	6,80931E-001	9,75330E-005	0,00000E+000	6,81003E-001	0,00000E+000	9	...........	-32768,00
	822	20,575	6,77915E-001	9,64145E-005	0,00000E+000	6,78003E-001	0,00000E+000	9	...........	-32768,00
	825	20,65	6,74907E-001	9,53177E-005	0,00000E+000	6,75002E-001	0,00000E+000	9	...........	-32768,00
	828	20,725	6,71905E-001	9,41944E-005	0,00000E+000	6,72002E-001	0,00000E+000	9	...........	-32768,00
	831	20,8	6,68912E-001	9,31253E-005	0,00000E+000	6,69002E-001	0,00000E+000	9	...........	-32768,00
	834	20,875	6,65897E-001	9,20470E-005	0,00000E+000	6,66002E-001	0,00000E+000	9	...........	-32768,00
	837	20,95	6,62903E-001	9,09838E-005	0,00000E+000	6,63001E-001	0,00000E+000	9	...........	-32768,00
	840	21,025	6,59899E-001	8,99268E-005	0,00000E+000	6,60001E-001	0,00000E+000	9	...........	-32768,00
	843	21,1	6,56912E-001	8,89013E-005	0,00000E+000	6,57001E-001	0,00000E+000	9	...........	-32768,00
	846	21,175	6,53921E-001	8,78284E-005	0,00000E+000	6,54001E-001	0,00000E+000	9	...........	-32768,00
	849	21,25	6,50900E-001	8,68020E-005	0,00000E+000	6,51000E-001	0,00000E+000	9	...........	-32768,00
	852	21,325	6,47912E-001	8,57618E-005	0,00000E+000	6,48000E-001	0,00000E+000	9	...........	-32768,00
	855	21,4	6,44899E-001	8,47496E-005	0,00000E+000	6,45000E-001	0,00000E+000	9	...........	-32768,00
	858	21,475	6,41911E-001	8,37197E-005	0,00000E+000	6,42000E-001	0,00000E+000	9	...........	-32768,00
	861	21,55	6,38900E-001	8,27040E-005	0,00000E+000	6,38999E-001	0,00000E+000	9	...........	-32768,00
	864	21,625	6,35908E-001	8,17191E-005	0,00000E+000	6,35999E-001	0,00000E+000	9	...........	-32768,00
	867	21,7	6,32895E-001	8,07320E-005	0,00000E+000	6,32999E-001	0,00000E+000	8	...........	-32768,00
	870	21,775	6,29907E-001	7,97546E-005	0,00000E+000	6,29999E-001	0,00000E+000	8	...........	-32768,00
	873	21,85	6,26874E-001	7,87560E-005	0,00000E+000	6,26998E-001	0,00000E+000	8	...........	-32768,00
	876	21,925	6,23877E-001	7,77738E-005	0,00000E+000	6,23998E-001	0,00000E+000	8	...........	-32768,00
	879	22	6,20889E-001	7,68586E-005	0,00000E+000	6,20998E-001	0,00000E+000	8	...........	-32768,00
	882	22,075	6,17903E-001	7,58549E-005	0,00000E+000	6,17998E-001	0,00000E+000	8	...........	-32768,00
	885	22,15	6,14874E-001	7,49310E-005	0,00000E+000	6,14998E-001	0,00000E+000	8	...........	-32768,00
	888	22,225	6,11876E-001	7,39495E-005	0,00000E+000	6,11997E-001	0,00000E+000	8	...........	-32768,00
	891	22,3	6,08889E-001	7,30242E-005	0,00000E+000	6,08997E-001	0,00000E+000	8	...........	-32768,00
	894	22,375	6,05890E-001	7,20921E-005	0,00000E+000	6,05997E-001	0,00000E+000	8	...........	-32768,00
	897	22,45	6,02908E-001	7,11604E-005	0,00000E+000	6,02997E-001	0,00000E+000	8	...........	-32768,00
	900	22,525	5,99874E-001	7,02522E-005	0,00000E+000	5,99996E-001	0,00000E+000	8	...........	-32768,00
	903	22,6	5,96886E-001	6,93438E-005	0,00000E+000	5,96996E-001	0,00000E+000	8	...........	-32768,00
	906	22,675	5,93880E-001	6,84257E-005	0,00000E+000	5,93996E-001	0,00000E+000	8	...........	-32768,00
	909	22,75	5,90890E-001	6,75745E-005	0,00000E+000	5,90996E-001	0,00000E+000	8	...........	-32768,00
	912	22,825	5,87879E-001	6,66594E-005	0,00000E+000	5,87995E-001	0,00000E+000	8	...........	-32768,00
	915	22,9	5,84886E-001	6,58204E-005	0,00000E+000	5,84995E-001	0,00000E+000	8	...........	-32768,00
	918	22,975	5,81881E-001	6,49948E-005	0,00000E+000	5,81995E-001	0,00000E+000	8	...........	-32768,00
	921	23,05	5,78879E-001	6,42064E-005	0,00000E+000	5,78995E-001	0,00000E+000	8	...........	-32768,00
	924	23,125	5,75863E-001	6,34051E-005	0,00000E+000	5,75994E-001	0,00000E+000	8	...........	-32768,00
	927	23,2	5,72872E-001	6,26352E-005	0,00000E+000	5,72994E-001	0,00000E+000	8	...........	-32768,00
	930	23,275	5,69872E-001	6,18130E-005	0,00000E+000	5,69994E-001	0,00000E+000	8	...........	-32768,00
	933	23,35	5,66892E-001	6,11092E-005	0,00000E+000	5,67006E-001	0,00000E+000	8	...........	-32768,00
	936	23,425	5,63880E-001	6,03308E-005	0,00000E+000	5,64006E-001	0,00000E+000	8	...........	-32768,00
	939	23,5	5,60878E-001	5,95565E-005	0,00000E+000	5,61006E-001	0,00000E+000	8	...........	-32768,00
	942	23,575	5,57873E-001	5,88141E-005	0,00000E+000	5,58005E-001	0,00000E+000	8	...........	-32768,00
	945	23,65	5,54892E-001	5,80130E-005	0,00000E+000	5,55005E-001	0,00000E+000	8	...........	-32768,00
	948	23,725	5,51906E-001	5,73262E-005	0,00000E+000	5,52005E-001	0,00000E+000	8	...........	-32768,00
	951	23,8	5,48870E-001	5,65220E-005	0,00000E+000	5,49005E-001	0,00000E+000	8	...........	-32768,00
	954	23,875	5,45890E-001	5,57792E-005	0,00000E+000	5,46004E-001	0,00000E+000	8	...........	-32768,00
	957	23,95	5,42889E-001	5,50191E-005	0,00000E+000	5,43004E-001	0,00000E+000	8	...........	-32768,00
	960	24,025	5,39896E-001	5,42496E-005	0,00000E+000	5,40004E-001	0,00000E+000	8	...........	-32768,00
	963	24,1	5,36875E-001	5,35108E-005	0,00000E+000	5,37004E-001	0,00000E+000	8	...........	-32768,00
	966	24,175	5,33887E-001	5,27175E-005	0,00000E+000	5,34003E-001	0,00000E+000	8	...........	-32768,00
	969	24,25	5,30877E-001	5,19895E-005	0,00000E+000	5,31003E-001	0,00000E+000	8	...........	-32768,00
	972	24,325	5,27877E-001	5,12001E-005	0,00000E+000	5,28003E-001	0,00000E+000	8	...........	-32768,00
	975	24,4	5,24872E-001	5,04663E-005	0,00000E+000	5,25003E-001	0,00000E+000	8	...........	-32768,00
	978	24,475	5,21865E-001	4,96572E-005	0,00000E+000	5,22003E-001	0,00000E+000	8	...........	-32768,00
	981	24,55	5,18875E-001	4,88671E-005	0,00000E+000	5,19002E-001	0,00000E+000	8	...........	-32768,00
	984	24,625	5,15884E-001	4,81323E-005	0,00000E+000	5,16002E-001	0,00000E+000	8	...........	-32768,00
	987	24,7	5,12889E-001	4,73698E-005	0,00000E+000	5,13002E-001	0,00000E+000	8	...........	-32768,00
	990	24,775	5,09865E-001	4,66064E-005	0,00000E+000	5,10002E-001	0,00000E+000	8	...........	-32768,00
	993	24,85	5,06877E-001	4,58357E-005	0,00000E+000	5,07001E-001	0,00000E+000	8	...........	-32768,00
	996	24,925	5,03864E-001	4,50844E-005	0,00000E+000	5,04001E-001	0,00000E+000	8	...........	-32768,00
	999	25	5,00885E-001	4,43242E-005	0,00000E+000	5,01001E-001	0,00000E+000	8	...........	-32768,00
	1002	25,075	4,97854E-001	4,35398E-005	0,00000E+000	4,98001E-001	0,00000E+000	8	...........	-32768,00
	1005	25,15	4,94863E-001	4,27607E-005	0,00000E+000	4,95000E-001	0,00000E+000	8	...........	-32768,00
	1008	25,225	4,91874E-001	4,19747E-005	0,00000E+000	4,92000E-001	0,00000E+000	8	...........	-32768,00
	1011	25,3	4,88885E-001	4,11500E-005	0,00000E+000	4,89000E-001	0,00000E+000	8	...........	-32768,00
	1014	25,375	4,85859E-001	4,03638E-005	0,00000E+000	4,86000E-001	0,00000E+000	8	...........	-32768,00
	1017	25,45	4,82864E-001	3,95877E-005	0,00000E+000	4,82999E-001	0,00000E+000	8	...........	-32768,00
	1020	25,525	4,79867E-001	3,87495E-005	0,00000E+000	4,79999E-001	0,00000E+000	8	...........	-32768,00
	1023	25,6	4,76867E-001	3,79836E-005	0,00000E+000	4,76999E-001	0,00000E+000	8	...........	-32768,00
	1026	25,675	4,73855E-001	3,71172E-005	0,00000E+000	4,73999E-001	0,00000E+000	8	...........	-32768,00
	1029	25,75	4,70848E-001	3,63296E-005	0,00000E+000	4,70998E-001	0,00000E+000	8	...........	-32768,00
	1032	25,825	4,67857E-001	3,54856E-005	0,00000E+000	4,67998E-001	0,00000E+000	8	...........	-32768,00
	1035	25,9	4,64869E-001	3,46333E-005	0,00000E+000	4,64998E-001	0,00000E+000	8	...........	-32768,00
	1038	25,975	4,61877E-001	3,37136E-005	0,00000E+000	4,61998E-001	0,00000E+000	8	...........	-32768,00
	1041	26,05	4,58850E-001	3,27432E-005	0,00000E+000	4,58997E-001	0,00000E+000	8	...........	-32768,00
	1044	26,125	4,55852E-001	3,15747E-005	0,00000E+000	4,55997E-001	0,00000E+000	8	...........	-32768,00
	1047	26,2	4,52852E-001	3,01691E-005	0,00000E+000	4,52997E-001	0,00000E+000	8	...........	-32768,00
	1050	26,275	4,49870E-001	2,83520E-005	0,00000E+000	4,49997E-001	0,00000E+000	8	...........	-32768,00
	1053	26,35	4,46866E-001	2,60422E-005	0,00000E+000	4,46997E-001	0,00000E+000	8	...........	-32768,00
	1056	26,425	4,43847E-001	2,30299E-005	0,00000E+000	4,43996E-001	0,00000E+000	8	...........	-32768,00
	1059	26,5	4,40866E-001	1,92904E-005	0,00000E+000	4,40996E-001	0,00000E+000	8	...........	-32768,00
	1062	26,575	4,37871E-001	1,47557E-005	0,00000E+000	4,37996E-001	0,00000E+000	8	...........	-32768,00
	1065	26,65	4,34856E-001	9,49717E-006	0,00000E+000	4,34996E-001	0,00000E+000	8	...........	-32768,00
	1068	26,725	4,31851E-001	3,56901E-006	0,00000E+000	4,31995E-001	0,00000E+000	7	...........	-32768,00
	1071	26,8	4,28867E-001	-2,72896E-006	0,00000E+000	4,28995E-001	0,00000E+000	7	...........	-32768,00
	1074	26,875	4,25880E-001	-9,29934E-006	0,00000E+000	4,25995E-001	0,00000E+000	7	...........	-32768,00
	1077	26,95	4,22845E-001	-1,58142E-005	0,00000E+000	4,22995E-001	0,00000E+000	8	...........	-32768,00
	1080	27,025	4,19850E-001	-2,21640E-005	0,00000E+000	4,19994E-001	0,00000E+000	8	...........	-32768,00
	1083	27,1	4,16853E-001	-2,80765E-005	0,00000E+000	4,16994E-001	0,00000E+000	8	...........	-32768,00
	1086	27,175	4,13859E-001	-3,35264E-005	0,00000E+000	4,13994E-001	0,00000E+000	8	...........	-32768,00
	1089	27,25	4,10880E-001	-3,83253E-005	0,00000E+000	4,11006E-001	0,00000E+000	8	...........	-32768,00
	1092	27,325	4,07868E-001	-4,26096E-005	0,00000E+000	4,08006E-001	0,00000E+000	8	...........	-32768,00
	1095	27,4	4,04875E-001	-4,63369E-005	0,00000E+000	4,05006E-001	0,00000E+000	8	...........	-32768,00
	1098	27,475	4,01887E-001	-4,95321E-005	0,00000E+000	4,02005E-001	0,00000E+000	8	...........	-32768,00
	1101	27,55	3,98884E-001	-5,23504E-005	0,00000E+000	3,99005E-001	0,00000E+000	8	...........	-32768,00
	1104	27,625	3,95874E-001	-5,47036E-005	0,00000E+000	3,96005E-001	0,00000E+000	8	...........	-32768,00
	1107	27,7	3,92877E-001	-5,68777E-005	0,00000E+000	3,93005E-001	0,00000E+000	8	...........	-32768,00
	1110	27,775	3,89882E-001	-5,86154E-005	0,00000E+000	3,90004E-001	0,00000E+000	8	...........	-32768,00
	1113	27,85	3,86889E-001	-6,00519E-005	0,00000E+000	3,87004E-001	0,00000E+000	8	...........	-32768,00
	1116	27,925	3,83868E-001	-6,11990E-005	0,00000E+000	3,84004E-001	0,00000E+000	8	...........	-32768,00
	1119	28	3,80862E-001	-6,21771E-005	0,00000E+000	3,81004E-001	0,00000E+000	8	...........	-32768,00
	1122	28,075	3,77875E-001	-6,29695E-005	0,00000E+000	3,78003E-001	0,00000E+000	8	...........	-32768,00
	1125	28,15	3,74877E-001	-6,34151E-005	0,00000E+000	3,75003E-001	0,00000E+000	8	...........	-32768,00
	1128	28,225	3,71851E-001	-6,38908E-005	0,00000E+000	3,72003E-001	0,00000E+000	8	...........	-32768,00
	1131	28,3	3,68870E-001	-6,37355E-005	0,00000E+000	3,69003E-001	0,00000E+000	8	...........	-32768,00
	1134	28,375	3,65864E-001	-6,37010E-005	0,00000E+000	3,66003E-001	0,00000E+000	8	...........	-32768,00
	1137	28,45	3,62873E-001	-6,36576E-005	0,00000E+000	3,63002E-001	0,00000E+000	8	...........	-32768,00
	1140	28,525	3,59877E-001	-6,33741E-005	0,00000E+000	3,60002E-001	0,00000E+000	8	...........	-32768,00
	1143	28,6	3,56852E-001	-6,29138E-005	0,00000E+000	3,57002E-001	0,00000E+000	8	...........	-32768,00
	1146	28,675	3,53864E-001	-6,23873E-005	0,00000E+000	3,54002E-001	0,00000E+000	8	...........	-32768,00
	1149	28,75	3,50858E-001	-6,17046E-005	0,00000E+000	3,51001E-001	0,00000E+000	8	...........	-32768,00
	1152	28,825	3,47866E-001	-6,09484E-005	0,00000E+000	3,48001E-001	0,00000E+000	8	...........	-32768,00
	1155	28,9	3,44854E-001	-6,02031E-005	0,00000E+000	3,45001E-001	0,00000E+000	8	...........	-32768,00
	1158	28,975	3,41858E-001	-5,94656E-005	0,00000E+000	3,42001E-001	0,00000E+000	8	...........	-32768,00
	1161	29,05	3,38864E-001	-5,86420E-005	0,00000E+000	3,39000E-001	0,00000E+000	8	...........	-32768,00
	1164	29,125	3,35873E-001	-5,78026E-005	0,00000E+000	3,36000E-001	0,00000E+000	8	...........	-32768,00
	1167	29,2	3,32860E-001	-5,66835E-005	0,00000E+000	3,33000E-001	0,00000E+000	8	...........	-32768,00
	1170	29,275	3,29855E-001	-5,58252E-005	0,00000E+000	3,30000E-001	0,00000E+000	8	...........	-32768,00
	1173	29,35	3,26856E-001	-5,49732E-005	0,00000E+000	3,26999E-001	0,00000E+000	8	...........	-32768,00
	1176	29,425	3,23869E-001	-5,41576E-005	0,00000E+000	3,23999E-001	0,00000E+000	8	...........	-32768,00
	1179	29,5	3,20871E-001	-5,35878E-005	0,00000E+000	3,20999E-001	0,00000E+000	8	...........	-32768,00
	1182	29,575	3,17864E-001	-5,28711E-005	0,00000E+000	3,17999E-001	0,00000E+000	8	...........	-32768,00
	1185	29,65	3,14857E-001	-5,21356E-005	0,00000E+000	3,14998E-001	0,00000E+000	8	...........	-32768,00
	1188	29,725	3,11871E-001	-5,15206E-005	0,00000E+000	3,11998E-001	0,00000E+000	8	...........	-32768,00
	1191	29,8	3,08858E-001	-5,09337E-005	0,00000E+000	3,08998E-001	0,00000E+000	8	...........	-32768,00
	1194	29,875	3,05849E-001	-5,03862E-005	0,00000E+000	3,05998E-001	0,00000E+000	8	...........	-32768,00
	1197	29,95	3,02853E-001	-4,98830E-005	0,00000E+000	3,02997E-001	0,00000E+000	8	...........	-32768,00
	1200	30,025	2,99853E-001	-4,94993E-005	0,00000E+000	2,99997E-001	0,00000E+000	8	...........	-32768,00
	1203	30,1	2,96863E-001	-4,90670E-005	0,00000E+000	2,96997E-001	0,00000E+000	8	...........	-32768,00
	1206	30,175	2,93836E-001	-4,87827E-005	0,00000E+000	2,93997E-001	0,00000E+000	8	...........	-32768,00
	1209	30,25	2,90837E-001	-4,84154E-005	0,00000E+000	2,90996E-001	0,00000E+000	8	...........	-32768,00
	1212	30,325	2,87857E-001	-4,81124E-005	0,00000E+000	2,87996E-001	0,00000E+000	8	...........	-32768,00
	1215	30,4	2,84858E-001	-4,79610E-005	0,00000E+000	2,84996E-001	0,00000E+000	8	...........	-32768,00
	1218	30,475	2,81848E-001	-4,77491E-005	0,00000E+000	2,81996E-001	0,00000E+000	8	...........	-32768,00
	1221	30,55	2,78839E-001	-4,76096E-005	0,00000E+000	2,78996E-001	0,00000E+000	8	...........	-32768,00
	1224	30,625	2,75842E-001	-4,74988E-005	0,00000E+000	2,75995E-001	0,00000E+000	8	...........	-32768,00
	1227	30,7	2,72851E-001	-4,73471E-005	0,00000E+000	2,72995E-001	0,00000E+000	8	...........	-32768,00
	1230	30,775	2,69861E-001	-4,72875E-005	0,00000E+000	2,69995E-001	0,00000E+000	8	...........	-32768,00
	1233	30,85	2,66840E-001	-4,72741E-005	0,00000E+000	2,66995E-001	0,00000E+000	8	...........	-32768,00
	1236	30,925	2,63849E-001	-4,72730E-005	0,00000E+000	2,63994E-001	0,00000E+000	8	...........	-32768,00
	1239	31	2,60846E-001	-4,72476E-005	0,00000E+000	2,60994E-001	0,00000E+000	8	...........	-32768,00
	1242	31,075	2,57852E-001	-4,72370E-005	0,00000E+000	2,57994E-001	0,00000E+000	8	...........	-32768,00
	1245	31,15	2,54846E-001	-4,73148E-005	0,00000E+000	2,55006E-001	0,00000E+000	8	...........	-32768,00
	1248	31,225	2,51842E-001	-4,74356E-005	0,00000E+000	2,52006E-001	0,00000E+000	8	...........	-32768,00
	1251	31,3	2,48848E-001	-4,75233E-005	0,00000E+000	2,49006E-001	0,00000E+000	8	...........	-32768,00
	1254	31,375	2,45859E-001	-4,76573E-005	0,00000E+000	2,46005E-001	0,00000E+000	8	...........	-32768,00
	1257	31,45	2,42824E-001	-4,77774E-005	0,00000E+000	2,43005E-001	0,00000E+000	8	...........	-32768,00
	1260	31,525	2,39835E-001	-4,79326E-005	0,00000E+000	2,40005E-001	0,00000E+000	8	...........	-32768,00
	1263	31,6	2,36837E-001	-4,80762E-005	0,00000E+000	2,37005E-001	0,00000E+000	8	...........	-32768,00
	1266	31,675	2,33842E-001	-4,82309E-005	0,00000E+000	2,34004E-001	0,00000E+000	8	...........	-32768,00
	1269	31,75	2,30848E-001	-4,84128E-005	0,00000E+000	2,31004E-001	0,00000E+000	8	...........	-32768,00
	1272	31,825	2,27831E-001	-4,85927E-005	0,00000E+000	2,28004E-001	0,00000E+000	8	...........	-32768,00
	1275	31,9	2,24839E-001	-4,88727E-005	0,00000E+000	2,25004E-001	0,00000E+000	8	...........	-32768,00
	1278	31,975	2,21849E-001	-4,90276E-005	0,00000E+000	2,22003E-001	0,00000E+000	8	...........	-32768,00
	1281	32,05	2,18862E-001	-4,92254E-005	0,00000E+000	2,19003E-001	0,00000E+000	8	...........	-32768,00
	1284	32,125	2,15837E-001	-4,94025E-005	0,00000E+000	2,16003E-001	0,00000E+000	8	...........	-32768,00
	1287	32,2	2,12845E-001	-4,96817E-005	0,00000E+000	2,13003E-001	0,00000E+000	8	...........	-32768,00
	1290	32,275	2,09840E-001	-4,99394E-005	0,00000E+000	2,10003E-001	0,00000E+000	8	...........	-32768,00
	1293	32,35	2,06847E-001	-5,02210E-005	0,00000E+000	2,07002E-001	0,00000E+000	8	...........	-32768,00
	1296	32,425	2,03840E-001	-5,04958E-005	0,00000E+000	2,04002E-001	0,00000E+000	8	...........	-32768,00
	1299	32,5	2,00841E-001	-5,07783E-005	0,00000E+000	2,01002E-001	0,00000E+000	8	...........	-32768,00
	1302	32,575	1,97831E-001	-5,10440E-005	0,00000E+000	1,98002E-001	0,00000E+000	8	...........	-32768,00
	1305	32,65	1,94839E-001	-5,13852E-005	0,00000E+000	1,95001E-001	0,00000E+000	8	...........	-32768,00
	1308	32,725	1,91831E-001	-5,17175E-005	0,00000E+000	1,92001E-001	0,00000E+000	8	...........	-32768,00
	1311	32,8	1,88839E-001	-5,20576E-005	0,00000E+000	1,89001E-001	0,00000E+000	8	...........	-32768,00
	1314	32,875	1,85852E-001	-5,23875E-005	0,00000E+000	1,86001E-001	0,00000E+000	8	...........	-32768,00
	1317	32,95	1,82843E-001	-5,27264E-005	0,00000E+000	1,83000E-001	0,00000E+000	8	...........	-32768,00
	1320	33,025	1,79858E-001	-5,30759E-005	0,00000E+000	1,80000E-001	0,00000E+000	8	...........	-32768,00
	1323	33,1	1,76846E-001	-5,34970E-005	0,00000E+000	1,77000E-001	0,00000E+000	8	...........	-32768,00
	1326	33,175	1,73848E-001	-5,40296E-005	0,00000E+000	1,74000E-001	0,00000E+000	8	...........	-32768,00
	1329	33,25	1,70847E-001	-5,42868E-005	0,00000E+000	1,70999E-001	0,00000E+000	8	...........	-32768,00
	1332	33,325	1,67864E-001	-5,49059E-005	0,00000E+000	1,67999E-001	0,00000E+000	8	...........	-32768,00
	1335	33,4	1,64846E-001	-5,51978E-005	0,00000E+000	1,64999E-001	0,00000E+000	8	...........	-32768,00
	1338	33,475	1,61841E-001	-5,56564E-005	0,00000E+000	1,61999E-001	0,00000E+000	8	...........	-32768,00
	1341	33,55	1,58833E-001	-5,61496E-005	0,00000E+000	1,58998E-001	0,00000E+000	8	...........	-32768,00
	1344	33,625	1,55841E-001	-5,66624E-005	0,00000E+000	1,55998E-001	0,00000E+000	8	...........	-32768,00
	1347	33,7	1,52831E-001	-5,72221E-005	0,00000E+000	1,52998E-001	0,00000E+000	8	...........	-32768,00
	1350	33,775	1,49833E-001	-5,77006E-005	0,00000E+000	1,49998E-001	0,00000E+000	8	...........	-32768,00
	1353	33,85	1,46827E-001	-5,83063E-005	0,00000E+000	1,46997E-001	0,00000E+000	8	...........	-32768,00
	1356	33,925	1,43837E-001	-5,88802E-005	0,00000E+000	1,43997E-001	0,00000E+000	8	...........	-32768,00
	1359	34	1,40810E-001	-5,94399E-005	0,00000E+000	1,40997E-001	0,00000E+000	8	...........	-32768,00
	1362	34,075	1,37820E-001	-6,01102E-005	0,00000E+000	1,37997E-001	0,00000E+000	8	...........	-32768,00
	1365	34,15	1,34836E-001	-6,07297E-005	0,00000E+000	1,34997E-001	0,00000E+000	8	...........	-32768,00
	1368	34,225	1,31828E-001	-6,13337E-005	0,00000E+000	1,31996E-001	0,00000E+000	8	...........	-32768,00
	1371	34,3	1,28837E-001	-6,19310E-005	0,00000E+000	1,28996E-001	0,00000E+000	8	...........	-32768,00
	1374	34,375	1,25838E-001	-6,25977E-005	0,00000E+000	1,25996E-001	0,00000E+000	8	...........	-32768,00
	1377	34,45	1,22832E-001	-6,31974E-005	0,00000E+000	1,22996E-001	0,00000E+000	8	...........	-32768,00
	1380	34,525	1,19831E-001	-6,37575E-005	0,00000E+000	1,19995E-001	0,00000E+000	8	...........	-32768,00
	1383	34,6	1,16836E-001	-6,44371E-005	0,00000E+000	1,16995E-001	0,00000E+000	8	...........	-32768,00
	1386	34,675	1,13819E-001	-6,51016E-005	0,00000E+000	1,13995E-001	0,00000E+000	8	...........	-32768,00
	1389	34,75	1,10827E-001	-6,58497E-005	0,00000E+000	1,10995E-001	0,00000E+000	8	...........	-32768,00
	1392	34,825	1,07821E-001	-6,64213E-005	0,00000E+000	1,07994E-001	0,00000E+000	8	...........	-32768,00
	1395	34,9	1,04837E-001	-6,70937E-005	0,00000E+000	1,04994E-001	0,00000E+000	8	...........	-32768,00
	1398	34,975	1,01842E-001	-6,77911E-005	0,00000E+000	1,01994E-001	0,00000E+000	8	...........	-32768,00
	1400	35,025	9,98219E-002	-6,83015E-005	0,00000E+000	1,00006E-001	0,00000E+000	8	...........	-32768,00