File: HOPG_cv/5mM/AgNO3_HOPG_5mM_50mv_1_cv.DTA
EXPLAIN
TAG	CV
TITLE	LABEL	Cyclic Voltammetry	Test &Identifier
DATE	LABEL	30/4/2022	Date
TIME	LABEL	14:23:01	Time
NOTES	NOTES	2	&Notes...
	30/04/22 , 5mM  AgNO3

PSTAT	PSTAT	IFC1000-09004	Potentiostat
VINIT	POTEN	1,00000E-001	F	Initial &E (V)
VLIMIT1	POTEN	1,00000E-001	F	Scan Limit &1 (V)
VLIMIT2	POTEN	8,00000E-001	F	Scan Limit &2 (V)
VFINAL	POTEN	1,00000E-001	F	Final &E (V)
SCANRATE	QUANT	4,99999E+001	&Scan Rate (mV/s)
STEPSIZE	QUANT	1,00000E+000	St&ep Size (mV)
CYCLES	IQUANT	1	C&ycles (#)
IMODE	SELECTOR	0	I/E Range &Mode
IRANGE	QUANT	1,00000E-005	&Max Current (mA)
AREA	QUANT	1,00000E+000	Electrode &Area (cm^2)
ELECTRODETYPE	SELECTOR	0	Electrode Type
STRIPPING	TOGGLE	F	Used for Stripping
POLARITY	TOGGLE	F	Signal Polarity
CONDIT	TWOPARAM	F	1,50000E+001	0,00000E+000	Conditionin&g	Time(s)	E(V)
DELAY	TWOPARAM	F	3,00000E+001	0,00000E+000	Init. De&lay	Time(s)	Stab.(mV/s)
EQDELAY	QUANT	1,00000E+001	Equil. &Time (s)
IRCOMP	SELECTOR	0	IRCom&p
PFCOR	QUANT	5,00000E+001	PF Corr. (ohm)
SAMPLINGMODE	SELECTOR	1	Sampling &Mode
EOC	QUANT	0	Open Circuit (V)
PSTATMODEL	IQUANT	48	Pstat Model
PSTATSECTION	LABEL	IFC1000-09004	Pstat Section
PSTATSERIALNO	LABEL	09004	Pstat Serial Number
CTRLMODE	IQUANT	1	Control Mode
ELECTROMETER	IQUANT	0	RE=0 or CS=1
IESTAB	IQUANT	2	I/E Stability
CASPEED	IQUANT	4	Control Amp Speed
CONVENTION	IQUANT	1	Current Convention
ICHRANGE	IQUANT	2	Ich Range
ICHRANGEMODE	TOGGLE	F	Ich Auto Range
ICHOFFSETENABLE	TOGGLE	F	Ich Offset Enable
ICHOFFSET	QUANT	0	Ich Offset (V)
ICHFILTER	IQUANT	3	Ich Filter
VCHRANGE	IQUANT	2	Vch Range
VCHRANGEMODE	TOGGLE	F	Vch Auto Range
VCHOFFSETENABLE	TOGGLE	F	Vch Offset Enable
VCHOFFSET	QUANT	0	Vch Offset (V)
VCHFILTER	IQUANT	3	Vch Filter
IERANGELOWERLIMIT	IQUANT	4	I/E Range Lower Limit
IERANGEMODE	TOGGLE	T	I/E AutoRange
IERANGE	IQUANT	5	I/E Range
ACHSELECT	IQUANT	0	Ach Select
ACHRANGE	IQUANT	2	Ach Range
ACHOFFSETENABLE	TOGGLE	F	Ach Offset Enable
ACHOFFSET	QUANT	0	Ach Offset (V)
ACHFILTER	IQUANT	1	Ach Filter
CABLEID	IQUANT	14	Cable ID
DCCALDATE	LABEL	3/18/2022	DC Calibration Date
ACCALDATE	LABEL	3/10/2016	AC Calibration Date
FRAMEWORKVERSION	QUANT	7,05	Framework Version
INSTRUMENTVERSION	LABEL	4.21	Instrument Version
CURVE1	TABLE
	Pt	T	Vf	Im	Vu	Sig	Ach	IERange	Over	Temp
	#	s	V vs. Ref.	A	V	V	V	#	bits	deg C
	0	0,02	9,98765E-002	-1,09478E-005	0,00000E+000	1,00006E-001	0,00000E+000	7	....ih..i..	-32768,00
	3	0,08	1,02835E-001	-3,62569E-005	0,00000E+000	1,02994E-001	0,00000E+000	8	...........	-32768,00
	6	0,14	1,05838E-001	-3,48288E-005	0,00000E+000	1,05994E-001	0,00000E+000	8	...........	-32768,00
	9	0,2	1,08821E-001	-3,35350E-005	0,00000E+000	1,08994E-001	0,00000E+000	8	...........	-32768,00
	12	0,26	1,11831E-001	-3,24098E-005	0,00000E+000	1,11995E-001	0,00000E+000	8	...........	-32768,00
	15	0,32	1,14824E-001	-3,13332E-005	0,00000E+000	1,14995E-001	0,00000E+000	8	...........	-32768,00
	18	0,38	1,17852E-001	-3,03580E-005	0,00000E+000	1,17995E-001	0,00000E+000	8	...........	-32768,00
	21	0,44	1,20848E-001	-2,95110E-005	0,00000E+000	1,20995E-001	0,00000E+000	8	...........	-32768,00
	24	0,5	1,23829E-001	-2,86771E-005	0,00000E+000	1,23996E-001	0,00000E+000	8	...........	-32768,00
	27	0,56	1,26832E-001	-2,78083E-005	0,00000E+000	1,26996E-001	0,00000E+000	8	...........	-32768,00
	30	0,62	1,29850E-001	-2,69857E-005	0,00000E+000	1,29996E-001	0,00000E+000	8	...........	-32768,00
	33	0,68	1,32841E-001	-2,60836E-005	0,00000E+000	1,32996E-001	0,00000E+000	8	...........	-32768,00
	36	0,74	1,35839E-001	-2,53641E-005	0,00000E+000	1,35997E-001	0,00000E+000	8	...........	-32768,00
	39	0,8	1,38835E-001	-2,45464E-005	0,00000E+000	1,38997E-001	0,00000E+000	8	...........	-32768,00
	42	0,86	1,41841E-001	-2,38489E-005	0,00000E+000	1,41997E-001	0,00000E+000	8	...........	-32768,00
	45	0,92	1,44838E-001	-2,31408E-005	0,00000E+000	1,44997E-001	0,00000E+000	8	...........	-32768,00
	48	0,98	1,47836E-001	-2,24200E-005	0,00000E+000	1,47998E-001	0,00000E+000	8	...........	-32768,00
	51	1,04	1,50817E-001	-2,17462E-005	0,00000E+000	1,50998E-001	0,00000E+000	8	...........	-32768,00
	54	1,1	1,53825E-001	-2,10636E-005	0,00000E+000	1,53998E-001	0,00000E+000	8	...........	-32768,00
	57	1,16	1,56843E-001	-2,04464E-005	0,00000E+000	1,56998E-001	0,00000E+000	8	...........	-32768,00
	60	1,22	1,59844E-001	-1,98033E-005	0,00000E+000	1,59999E-001	0,00000E+000	8	...........	-32768,00
	63	1,28	1,62832E-001	-1,92146E-005	0,00000E+000	1,62999E-001	0,00000E+000	8	...........	-32768,00
	66	1,34	1,65831E-001	-1,86272E-005	0,00000E+000	1,65999E-001	0,00000E+000	8	...........	-32768,00
	69	1,4	1,68871E-001	-1,80698E-005	0,00000E+000	1,68999E-001	0,00000E+000	8	...........	-32768,00
	72	1,46	1,71849E-001	-1,74749E-005	0,00000E+000	1,71999E-001	0,00000E+000	8	...........	-32768,00
	75	1,52	1,74853E-001	-1,69041E-005	0,00000E+000	1,75000E-001	0,00000E+000	8	...........	-32768,00
	78	1,58	1,77819E-001	-1,63851E-005	0,00000E+000	1,78000E-001	0,00000E+000	8	...........	-32768,00
	81	1,64	1,80867E-001	-1,58529E-005	0,00000E+000	1,81000E-001	0,00000E+000	8	...........	-32768,00
	84	1,7	1,83856E-001	-1,53268E-005	0,00000E+000	1,84000E-001	0,00000E+000	8	...........	-32768,00
	87	1,76	1,86852E-001	-1,48369E-005	0,00000E+000	1,87001E-001	0,00000E+000	8	...........	-32768,00
	90	1,82	1,89847E-001	-1,43731E-005	0,00000E+000	1,90001E-001	0,00000E+000	8	...........	-32768,00
	93	1,88	1,92852E-001	-1,38734E-005	0,00000E+000	1,93001E-001	0,00000E+000	8	...........	-32768,00
	96	1,94	1,95863E-001	-1,34132E-005	0,00000E+000	1,96001E-001	0,00000E+000	8	...........	-32768,00
	99	2	1,98842E-001	-1,28598E-005	0,00000E+000	1,99002E-001	0,00000E+000	8	...........	-32768,00
	102	2,06	2,01847E-001	-1,24058E-005	0,00000E+000	2,02002E-001	0,00000E+000	8	...........	-32768,00
	105	2,12	2,04845E-001	-1,18933E-005	0,00000E+000	2,05002E-001	0,00000E+000	8	...........	-32768,00
	108	2,18	2,07850E-001	-1,14238E-005	0,00000E+000	2,08002E-001	0,00000E+000	8	...........	-32768,00
	111	2,24	2,10837E-001	-1,09272E-005	0,00000E+000	2,11003E-001	0,00000E+000	8	...........	-32768,00
	114	2,3	2,13840E-001	-1,04209E-005	0,00000E+000	2,14003E-001	0,00000E+000	8	...........	-32768,00
	117	2,36	2,16833E-001	-1,00047E-005	0,00000E+000	2,17003E-001	0,00000E+000	8	...........	-32768,00
	120	2,42	2,19851E-001	-9,55423E-006	0,00000E+000	2,20003E-001	0,00000E+000	8	...........	-32768,00
	123	2,48	2,22856E-001	-9,07052E-006	0,00000E+000	2,23004E-001	0,00000E+000	8	...........	-32768,00
	126	2,54	2,25840E-001	-8,60500E-006	0,00000E+000	2,26004E-001	0,00000E+000	8	...........	-32768,00
	129	2,6	2,28841E-001	-8,14800E-006	0,00000E+000	2,29004E-001	0,00000E+000	8	...........	-32768,00
	132	2,66	2,31866E-001	-7,67741E-006	0,00000E+000	2,32004E-001	0,00000E+000	7	...........	-32768,00
	135	2,72	2,34870E-001	-7,23251E-006	0,00000E+000	2,35005E-001	0,00000E+000	7	...........	-32768,00
	138	2,78	2,37862E-001	-6,73702E-006	0,00000E+000	2,38005E-001	0,00000E+000	7	...........	-32768,00
	141	2,84	2,40859E-001	-6,28180E-006	0,00000E+000	2,41005E-001	0,00000E+000	7	...........	-32768,00
	144	2,9	2,43872E-001	-5,83794E-006	0,00000E+000	2,44005E-001	0,00000E+000	7	...........	-32768,00
	147	2,96	2,46853E-001	-5,36891E-006	0,00000E+000	2,47005E-001	0,00000E+000	7	...........	-32768,00
	150	3,02	2,49856E-001	-4,89897E-006	0,00000E+000	2,50006E-001	0,00000E+000	7	...........	-32768,00
	153	3,08	2,52853E-001	-4,48264E-006	0,00000E+000	2,53006E-001	0,00000E+000	7	...........	-32768,00
	156	3,14	2,55852E-001	-4,01523E-006	0,00000E+000	2,56006E-001	0,00000E+000	7	...........	-32768,00
	159	3,2	2,58861E-001	-3,48753E-006	0,00000E+000	2,58994E-001	0,00000E+000	7	...........	-32768,00
	162	3,26	2,61853E-001	-3,02030E-006	0,00000E+000	2,61994E-001	0,00000E+000	7	...........	-32768,00
	165	3,32	2,64865E-001	-2,54661E-006	0,00000E+000	2,64994E-001	0,00000E+000	7	...........	-32768,00
	168	3,38	2,67847E-001	-2,09862E-006	0,00000E+000	2,67995E-001	0,00000E+000	7	...........	-32768,00
	171	3,44	2,70848E-001	-1,56152E-006	0,00000E+000	2,70995E-001	0,00000E+000	7	...........	-32768,00
	174	3,5	2,73854E-001	-1,07462E-006	0,00000E+000	2,73995E-001	0,00000E+000	7	...........	-32768,00
	177	3,56	2,76850E-001	-6,48865E-007	0,00000E+000	2,76995E-001	0,00000E+000	7	...........	-32768,00
	180	3,62	2,79844E-001	-1,45521E-007	0,00000E+000	2,79996E-001	0,00000E+000	7	...........	-32768,00
	183	3,68	2,82863E-001	3,74998E-007	0,00000E+000	2,82996E-001	0,00000E+000	7	...........	-32768,00
	186	3,74	2,85858E-001	8,80987E-007	0,00000E+000	2,85996E-001	0,00000E+000	7	...........	-32768,00
	189	3,8	2,88856E-001	1,37612E-006	0,00000E+000	2,88996E-001	0,00000E+000	7	...........	-32768,00
	192	3,86	2,91851E-001	1,83148E-006	0,00000E+000	2,91997E-001	0,00000E+000	7	...........	-32768,00
	195	3,92	2,94832E-001	2,35932E-006	0,00000E+000	2,94997E-001	0,00000E+000	7	...........	-32768,00
	198	3,98	2,97858E-001	2,82805E-006	0,00000E+000	2,97997E-001	0,00000E+000	7	...........	-32768,00
	201	4,04	3,00853E-001	3,32869E-006	0,00000E+000	3,00997E-001	0,00000E+000	7	...........	-32768,00
	204	4,1	3,03851E-001	3,87534E-006	0,00000E+000	3,03998E-001	0,00000E+000	7	...........	-32768,00
	207	4,16	3,06846E-001	4,39193E-006	0,00000E+000	3,06998E-001	0,00000E+000	7	...........	-32768,00
	210	4,22	3,09860E-001	4,89941E-006	0,00000E+000	3,09998E-001	0,00000E+000	7	...........	-32768,00
	213	4,28	3,12861E-001	5,45446E-006	0,00000E+000	3,12998E-001	0,00000E+000	7	...........	-32768,00
	216	4,34	3,15842E-001	5,95859E-006	0,00000E+000	3,15998E-001	0,00000E+000	7	...........	-32768,00
	219	4,4	3,18857E-001	6,54031E-006	0,00000E+000	3,18999E-001	0,00000E+000	7	...........	-32768,00
	222	4,46	3,21871E-001	7,09630E-006	0,00000E+000	3,21999E-001	0,00000E+000	7	...........	-32768,00
	225	4,52	3,24861E-001	7,67917E-006	0,00000E+000	3,24999E-001	0,00000E+000	7	...........	-32768,00
	228	4,58	3,27851E-001	8,24825E-006	0,00000E+000	3,27999E-001	0,00000E+000	7	...........	-32768,00
	231	4,64	3,30853E-001	8,82155E-006	0,00000E+000	3,31000E-001	0,00000E+000	7	...........	-32768,00
	234	4,7	3,33883E-001	9,38884E-006	0,00000E+000	3,34000E-001	0,00000E+000	8	...........	-32768,00
	237	4,76	3,36863E-001	9,98752E-006	0,00000E+000	3,37000E-001	0,00000E+000	8	...........	-32768,00
	240	4,82	3,39863E-001	1,05695E-005	0,00000E+000	3,40000E-001	0,00000E+000	8	...........	-32768,00
	243	4,88	3,42861E-001	1,12115E-005	0,00000E+000	3,43001E-001	0,00000E+000	8	...........	-32768,00
	246	4,94	3,45855E-001	1,18578E-005	0,00000E+000	3,46001E-001	0,00000E+000	8	...........	-32768,00
	249	5	3,48856E-001	1,25019E-005	0,00000E+000	3,49001E-001	0,00000E+000	8	...........	-32768,00
	252	5,06	3,51849E-001	1,31749E-005	0,00000E+000	3,52001E-001	0,00000E+000	8	...........	-32768,00
	255	5,12	3,54856E-001	1,38595E-005	0,00000E+000	3,55002E-001	0,00000E+000	8	...........	-32768,00
	258	5,18	3,57845E-001	1,45813E-005	0,00000E+000	3,58002E-001	0,00000E+000	8	...........	-32768,00
	261	5,24	3,60871E-001	1,52975E-005	0,00000E+000	3,61002E-001	0,00000E+000	8	...........	-32768,00
	264	5,3	3,63871E-001	1,60301E-005	0,00000E+000	3,64002E-001	0,00000E+000	8	...........	-32768,00
	267	5,36	3,66861E-001	1,68041E-005	0,00000E+000	3,67003E-001	0,00000E+000	8	...........	-32768,00
	270	5,42	3,69853E-001	1,75762E-005	0,00000E+000	3,70003E-001	0,00000E+000	8	...........	-32768,00
	273	5,48	3,72885E-001	1,83835E-005	0,00000E+000	3,73003E-001	0,00000E+000	8	...........	-32768,00
	276	5,54	3,75866E-001	1,92129E-005	0,00000E+000	3,76003E-001	0,00000E+000	8	...........	-32768,00
	279	5,6	3,78874E-001	2,00126E-005	0,00000E+000	3,79004E-001	0,00000E+000	8	...........	-32768,00
	282	5,66	3,81868E-001	2,09141E-005	0,00000E+000	3,82004E-001	0,00000E+000	8	...........	-32768,00
	285	5,72	3,84887E-001	2,18216E-005	0,00000E+000	3,85004E-001	0,00000E+000	8	...........	-32768,00
	288	5,78	3,87874E-001	2,28228E-005	0,00000E+000	3,88004E-001	0,00000E+000	8	...........	-32768,00
	291	5,84	3,90871E-001	2,37484E-005	0,00000E+000	3,91005E-001	0,00000E+000	8	...........	-32768,00
	294	5,9	3,93866E-001	2,47351E-005	0,00000E+000	3,94005E-001	0,00000E+000	8	...........	-32768,00
	297	5,96	3,96874E-001	2,57337E-005	0,00000E+000	3,97005E-001	0,00000E+000	8	...........	-32768,00
	300	6,02	3,99873E-001	2,67752E-005	0,00000E+000	4,00005E-001	0,00000E+000	8	...........	-32768,00
	303	6,08	4,02895E-001	2,78269E-005	0,00000E+000	4,03005E-001	0,00000E+000	8	...........	-32768,00
	306	6,14	4,05872E-001	2,88662E-005	0,00000E+000	4,06006E-001	0,00000E+000	8	...........	-32768,00
	309	6,2	4,08870E-001	2,99659E-005	0,00000E+000	4,09006E-001	0,00000E+000	8	...........	-32768,00
	312	6,26	4,11875E-001	3,10496E-005	0,00000E+000	4,12006E-001	0,00000E+000	8	...........	-32768,00
	315	6,32	4,14853E-001	3,21222E-005	0,00000E+000	4,14994E-001	0,00000E+000	8	...........	-32768,00
	318	6,38	4,17850E-001	3,32633E-005	0,00000E+000	4,17994E-001	0,00000E+000	8	...........	-32768,00
	321	6,44	4,20851E-001	3,43304E-005	0,00000E+000	4,20994E-001	0,00000E+000	8	...........	-32768,00
	324	6,5	4,23876E-001	3,54286E-005	0,00000E+000	4,23995E-001	0,00000E+000	8	...........	-32768,00
	327	6,56	4,26866E-001	3,64905E-005	0,00000E+000	4,26995E-001	0,00000E+000	8	...........	-32768,00
	330	6,62	4,29866E-001	3,75895E-005	0,00000E+000	4,29995E-001	0,00000E+000	8	...........	-32768,00
	333	6,68	4,32868E-001	3,86958E-005	0,00000E+000	4,32995E-001	0,00000E+000	8	...........	-32768,00
	336	6,74	4,35868E-001	3,97506E-005	0,00000E+000	4,35996E-001	0,00000E+000	8	...........	-32768,00
	339	6,8	4,38860E-001	4,08514E-005	0,00000E+000	4,38996E-001	0,00000E+000	8	...........	-32768,00
	342	6,86	4,41857E-001	4,19290E-005	0,00000E+000	4,41996E-001	0,00000E+000	8	...........	-32768,00
	345	6,92	4,44848E-001	4,30402E-005	0,00000E+000	4,44996E-001	0,00000E+000	8	...........	-32768,00
	348	6,98	4,47866E-001	4,41786E-005	0,00000E+000	4,47997E-001	0,00000E+000	8	...........	-32768,00
	351	7,04	4,50857E-001	4,53035E-005	0,00000E+000	4,50997E-001	0,00000E+000	8	...........	-32768,00
	354	7,1	4,53865E-001	4,64704E-005	0,00000E+000	4,53997E-001	0,00000E+000	8	...........	-32768,00
	357	7,16	4,56853E-001	4,75979E-005	0,00000E+000	4,56997E-001	0,00000E+000	8	...........	-32768,00
	360	7,22	4,59846E-001	4,87656E-005	0,00000E+000	4,59998E-001	0,00000E+000	8	...........	-32768,00
	363	7,28	4,62864E-001	4,99808E-005	0,00000E+000	4,62998E-001	0,00000E+000	8	...........	-32768,00
	366	7,34	4,65869E-001	5,11621E-005	0,00000E+000	4,65998E-001	0,00000E+000	8	...........	-32768,00
	369	7,4	4,68863E-001	5,23711E-005	0,00000E+000	4,68998E-001	0,00000E+000	8	...........	-32768,00
	372	7,46	4,71859E-001	5,35935E-005	0,00000E+000	4,71999E-001	0,00000E+000	8	...........	-32768,00
	375	7,52	4,74886E-001	5,48322E-005	0,00000E+000	4,74999E-001	0,00000E+000	8	...........	-32768,00
	378	7,58	4,77872E-001	5,61030E-005	0,00000E+000	4,77999E-001	0,00000E+000	8	...........	-32768,00
	381	7,64	4,80860E-001	5,73666E-005	0,00000E+000	4,80999E-001	0,00000E+000	8	...........	-32768,00
	384	7,7	4,83867E-001	5,86537E-005	0,00000E+000	4,83999E-001	0,00000E+000	8	...........	-32768,00
	387	7,76	4,86875E-001	5,99733E-005	0,00000E+000	4,87000E-001	0,00000E+000	8	...........	-32768,00
	390	7,82	4,89877E-001	6,13063E-005	0,00000E+000	4,90000E-001	0,00000E+000	8	...........	-32768,00
	393	7,88	4,92865E-001	6,27278E-005	0,00000E+000	4,93000E-001	0,00000E+000	8	...........	-32768,00
	396	7,94	4,95863E-001	6,41401E-005	0,00000E+000	4,96000E-001	0,00000E+000	8	...........	-32768,00
	399	8	4,98852E-001	6,56074E-005	0,00000E+000	4,99001E-001	0,00000E+000	8	...........	-32768,00
	402	8,06	5,01880E-001	6,71676E-005	0,00000E+000	5,02001E-001	0,00000E+000	8	...........	-32768,00
	405	8,12	5,04873E-001	6,87429E-005	0,00000E+000	5,05001E-001	0,00000E+000	8	...........	-32768,00
	408	8,18	5,07881E-001	7,04524E-005	0,00000E+000	5,08001E-001	0,00000E+000	8	...........	-32768,00
	411	8,24	5,10859E-001	7,21973E-005	0,00000E+000	5,11002E-001	0,00000E+000	8	...........	-32768,00
	414	8,3	5,13896E-001	7,40209E-005	0,00000E+000	5,14002E-001	0,00000E+000	8	...........	-32768,00
	417	8,36	5,16891E-001	7,59606E-005	0,00000E+000	5,17002E-001	0,00000E+000	8	...........	-32768,00
	420	8,42	5,19886E-001	7,79459E-005	0,00000E+000	5,20002E-001	0,00000E+000	8	...........	-32768,00
	423	8,48	5,22884E-001	8,00792E-005	0,00000E+000	5,23003E-001	0,00000E+000	8	...........	-32768,00
	426	8,54	5,25894E-001	8,22865E-005	0,00000E+000	5,26003E-001	0,00000E+000	8	...........	-32768,00
	429	8,6	5,28891E-001	8,46069E-005	0,00000E+000	5,29003E-001	0,00000E+000	8	...........	-32768,00
	432	8,66	5,31882E-001	8,70558E-005	0,00000E+000	5,32003E-001	0,00000E+000	8	...........	-32768,00
	435	8,72	5,34896E-001	8,95498E-005	0,00000E+000	5,35004E-001	0,00000E+000	8	...........	-32768,00
	438	8,78	5,37894E-001	9,22604E-005	0,00000E+000	5,38004E-001	0,00000E+000	9	...........	-32768,00
	441	8,84	5,40901E-001	9,50058E-005	0,00000E+000	5,41004E-001	0,00000E+000	9	...........	-32768,00
	444	8,9	5,43897E-001	9,79338E-005	0,00000E+000	5,44004E-001	0,00000E+000	9	...........	-32768,00
	447	8,96	5,46898E-001	1,00987E-004	0,00000E+000	5,47005E-001	0,00000E+000	9	...........	-32768,00
	450	9,02	5,49890E-001	1,04045E-004	0,00000E+000	5,50005E-001	0,00000E+000	9	...........	-32768,00
	453	9,08	5,52897E-001	1,07355E-004	0,00000E+000	5,53005E-001	0,00000E+000	9	...........	-32768,00
	456	9,14	5,55884E-001	1,10710E-004	0,00000E+000	5,56005E-001	0,00000E+000	9	...........	-32768,00
	459	9,2	5,58890E-001	1,14169E-004	0,00000E+000	5,59005E-001	0,00000E+000	9	...........	-32768,00
	462	9,26	5,61883E-001	1,17690E-004	0,00000E+000	5,62006E-001	0,00000E+000	9	...........	-32768,00
	465	9,32	5,64917E-001	1,21194E-004	0,00000E+000	5,65006E-001	0,00000E+000	9	...........	-32768,00
	468	9,38	5,67908E-001	1,24842E-004	0,00000E+000	5,68006E-001	0,00000E+000	9	...........	-32768,00
	471	9,44	5,70883E-001	1,28405E-004	0,00000E+000	5,70994E-001	0,00000E+000	9	...........	-32768,00
	474	9,5	5,73891E-001	1,32296E-004	0,00000E+000	5,73994E-001	0,00000E+000	9	...........	-32768,00
	477	9,56	5,76871E-001	1,36266E-004	0,00000E+000	5,76994E-001	0,00000E+000	9	...........	-32768,00
	480	9,62	5,79894E-001	1,40620E-004	0,00000E+000	5,79995E-001	0,00000E+000	9	...........	-32768,00
	483	9,68	5,82888E-001	1,45391E-004	0,00000E+000	5,82995E-001	0,00000E+000	9	...........	-32768,00
	486	9,74	5,85881E-001	1,50347E-004	0,00000E+000	5,85995E-001	0,00000E+000	9	...........	-32768,00
	489	9,8	5,88889E-001	1,55809E-004	0,00000E+000	5,88995E-001	0,00000E+000	9	...........	-32768,00
	492	9,86	5,91899E-001	1,61453E-004	0,00000E+000	5,91996E-001	0,00000E+000	9	...........	-32768,00
	495	9,92	5,94893E-001	1,67495E-004	0,00000E+000	5,94996E-001	0,00000E+000	9	...........	-32768,00
	498	9,98	5,97890E-001	1,73800E-004	0,00000E+000	5,97996E-001	0,00000E+000	9	...........	-32768,00
	501	10,04	6,00886E-001	1,80288E-004	0,00000E+000	6,00996E-001	0,00000E+000	9	...........	-32768,00
	504	10,1	6,03909E-001	1,86894E-004	0,00000E+000	6,03997E-001	0,00000E+000	9	...........	-32768,00
	507	10,16	6,06897E-001	1,93968E-004	0,00000E+000	6,06997E-001	0,00000E+000	9	...........	-32768,00
	510	10,22	6,09887E-001	2,00690E-004	0,00000E+000	6,09997E-001	0,00000E+000	9	...........	-32768,00
	513	10,28	6,12898E-001	2,07693E-004	0,00000E+000	6,12997E-001	0,00000E+000	9	...........	-32768,00
	516	10,34	6,15919E-001	2,14511E-004	0,00000E+000	6,15998E-001	0,00000E+000	9	...........	-32768,00
	519	10,4	6,18908E-001	2,21340E-004	0,00000E+000	6,18998E-001	0,00000E+000	9	...........	-32768,00
	522	10,46	6,21893E-001	2,27806E-004	0,00000E+000	6,21998E-001	0,00000E+000	9	...........	-32768,00
	525	10,52	6,24887E-001	2,33650E-004	0,00000E+000	6,24998E-001	0,00000E+000	9	...........	-32768,00
	528	10,58	6,27884E-001	2,38966E-004	0,00000E+000	6,27999E-001	0,00000E+000	9	...........	-32768,00
	531	10,64	6,30911E-001	2,42989E-004	0,00000E+000	6,30999E-001	0,00000E+000	9	...........	-32768,00
	534	10,7	6,33912E-001	2,45490E-004	0,00000E+000	6,33999E-001	0,00000E+000	9	...........	-32768,00
	537	10,76	6,36905E-001	2,45987E-004	0,00000E+000	6,36999E-001	0,00000E+000	9	...........	-32768,00
	540	10,82	6,39905E-001	2,43538E-004	0,00000E+000	6,40000E-001	0,00000E+000	9	...........	-32768,00
	543	10,88	6,42927E-001	2,37746E-004	0,00000E+000	6,43000E-001	0,00000E+000	9	...........	-32768,00
	546	10,94	6,45926E-001	2,27644E-004	0,00000E+000	6,46000E-001	0,00000E+000	9	...........	-32768,00
	549	11	6,48910E-001	2,13429E-004	0,00000E+000	6,49000E-001	0,00000E+000	9	...........	-32768,00
	552	11,06	6,51907E-001	1,97088E-004	0,00000E+000	6,52000E-001	0,00000E+000	9	...........	-32768,00
	555	11,12	6,54918E-001	1,82247E-004	0,00000E+000	6,55001E-001	0,00000E+000	9	...........	-32768,00
	558	11,18	6,57910E-001	1,71740E-004	0,00000E+000	6,58001E-001	0,00000E+000	9	...........	-32768,00
	561	11,24	6,60910E-001	1,64986E-004	0,00000E+000	6,61001E-001	0,00000E+000	9	...........	-32768,00
	564	11,3	6,63900E-001	1,60038E-004	0,00000E+000	6,64001E-001	0,00000E+000	9	...........	-32768,00
	567	11,36	6,66924E-001	1,56212E-004	0,00000E+000	6,67002E-001	0,00000E+000	9	...........	-32768,00
	570	11,42	6,69930E-001	1,53585E-004	0,00000E+000	6,70002E-001	0,00000E+000	9	...........	-32768,00
	573	11,48	6,72911E-001	1,51310E-004	0,00000E+000	6,73002E-001	0,00000E+000	9	...........	-32768,00
	576	11,54	6,75920E-001	1,49689E-004	0,00000E+000	6,76002E-001	0,00000E+000	9	...........	-32768,00
	579	11,6	6,78908E-001	1,48340E-004	0,00000E+000	6,79003E-001	0,00000E+000	9	...........	-32768,00
	582	11,66	6,81921E-001	1,47282E-004	0,00000E+000	6,82003E-001	0,00000E+000	9	...........	-32768,00
	585	11,72	6,84927E-001	1,46528E-004	0,00000E+000	6,85003E-001	0,00000E+000	9	...........	-32768,00
	588	11,78	6,87919E-001	1,45891E-004	0,00000E+000	6,88003E-001	0,00000E+000	9	...........	-32768,00
	591	11,84	6,90933E-001	1,45325E-004	0,00000E+000	6,91004E-001	0,00000E+000	9	...........	-32768,00
	594	11,9	6,93938E-001	1,45114E-004	0,00000E+000	6,94004E-001	0,00000E+000	9	...........	-32768,00
	597	11,96	6,96934E-001	1,45033E-004	0,00000E+000	6,97004E-001	0,00000E+000	9	...........	-32768,00
	600	12,02	6,99943E-001	1,45045E-004	0,00000E+000	7,00004E-001	0,00000E+000	9	...........	-32768,00
	603	12,08	7,02929E-001	1,45162E-004	0,00000E+000	7,03005E-001	0,00000E+000	9	...........	-32768,00
	606	12,14	7,05934E-001	1,45247E-004	0,00000E+000	7,06005E-001	0,00000E+000	9	...........	-32768,00
	609	12,2	7,08939E-001	1,45403E-004	0,00000E+000	7,09005E-001	0,00000E+000	9	...........	-32768,00
	612	12,26	7,11927E-001	1,45680E-004	0,00000E+000	7,12005E-001	0,00000E+000	9	...........	-32768,00
	615	12,32	7,14925E-001	1,46003E-004	0,00000E+000	7,15006E-001	0,00000E+000	9	...........	-32768,00
	618	12,38	7,17942E-001	1,46377E-004	0,00000E+000	7,18006E-001	0,00000E+000	9	...........	-32768,00
	621	12,44	7,20957E-001	1,46787E-004	0,00000E+000	7,21006E-001	0,00000E+000	9	...........	-32768,00
	624	12,5	7,23948E-001	1,47282E-004	0,00000E+000	7,24006E-001	0,00000E+000	9	...........	-32768,00
	627	12,56	7,26923E-001	1,47612E-004	0,00000E+000	7,26994E-001	0,00000E+000	9	...........	-32768,00
	630	12,62	7,29915E-001	1,48259E-004	0,00000E+000	7,29994E-001	0,00000E+000	9	...........	-32768,00
	633	12,68	7,32931E-001	1,49066E-004	0,00000E+000	7,32994E-001	0,00000E+000	9	...........	-32768,00
	636	12,74	7,35920E-001	1,49198E-004	0,00000E+000	7,35995E-001	0,00000E+000	9	...........	-32768,00
	639	12,8	7,38930E-001	1,49860E-004	0,00000E+000	7,38995E-001	0,00000E+000	9	...........	-32768,00
	642	12,86	7,41931E-001	1,50521E-004	0,00000E+000	7,41995E-001	0,00000E+000	9	...........	-32768,00
	645	12,92	7,44934E-001	1,51245E-004	0,00000E+000	7,44995E-001	0,00000E+000	9	...........	-32768,00
	648	12,98	7,47952E-001	1,52076E-004	0,00000E+000	7,47996E-001	0,00000E+000	9	...........	-32768,00
	651	13,04	7,50924E-001	1,52666E-004	0,00000E+000	7,50996E-001	0,00000E+000	9	...........	-32768,00
	654	13,1	7,53935E-001	1,53209E-004	0,00000E+000	7,53996E-001	0,00000E+000	9	...........	-32768,00
	657	13,16	7,56954E-001	1,54012E-004	0,00000E+000	7,56996E-001	0,00000E+000	9	...........	-32768,00
	660	13,22	7,59942E-001	1,54706E-004	0,00000E+000	7,59997E-001	0,00000E+000	9	...........	-32768,00
	663	13,28	7,62947E-001	1,55667E-004	0,00000E+000	7,62997E-001	0,00000E+000	9	...........	-32768,00
	666	13,34	7,65939E-001	1,57442E-004	0,00000E+000	7,65997E-001	0,00000E+000	9	...........	-32768,00
	669	13,4	7,68926E-001	1,58168E-004	0,00000E+000	7,68997E-001	0,00000E+000	9	...........	-32768,00
	672	13,46	7,71943E-001	1,58633E-004	0,00000E+000	7,71998E-001	0,00000E+000	9	...........	-32768,00
	675	13,52	7,74953E-001	1,59191E-004	0,00000E+000	7,74998E-001	0,00000E+000	9	...........	-32768,00
	678	13,58	7,77932E-001	1,59944E-004	0,00000E+000	7,77998E-001	0,00000E+000	9	...........	-32768,00
	681	13,64	7,80939E-001	1,60823E-004	0,00000E+000	7,80998E-001	0,00000E+000	9	...........	-32768,00
	684	13,7	7,83956E-001	1,61742E-004	0,00000E+000	7,83999E-001	0,00000E+000	9	...........	-32768,00
	687	13,76	7,86944E-001	1,62530E-004	0,00000E+000	7,86999E-001	0,00000E+000	9	...........	-32768,00
	690	13,82	7,89954E-001	1,63297E-004	0,00000E+000	7,89999E-001	0,00000E+000	9	...........	-32768,00
	693	13,88	7,92943E-001	1,64190E-004	0,00000E+000	7,92999E-001	0,00000E+000	9	...........	-32768,00
	696	13,94	7,95952E-001	1,65472E-004	0,00000E+000	7,96000E-001	0,00000E+000	9	...........	-32768,00
	699	14	7,98957E-001	1,66217E-004	0,00000E+000	7,99000E-001	0,00000E+000	9	...........	-32768,00
	702	14,06	7,97965E-001	1,64401E-004	0,00000E+000	7,98000E-001	0,00000E+000	9	...........	-32768,00
	705	14,12	7,94963E-001	1,61401E-004	0,00000E+000	7,94999E-001	0,00000E+000	9	...........	-32768,00
	708	14,18	7,91949E-001	1,58387E-004	0,00000E+000	7,91999E-001	0,00000E+000	9	...........	-32768,00
	711	14,24	7,88950E-001	1,55672E-004	0,00000E+000	7,88999E-001	0,00000E+000	9	...........	-32768,00
	714	14,3	7,85956E-001	1,53158E-004	0,00000E+000	7,85999E-001	0,00000E+000	9	...........	-32768,00
	717	14,36	7,82958E-001	1,50766E-004	0,00000E+000	7,82998E-001	0,00000E+000	9	...........	-32768,00
	720	14,42	7,79939E-001	1,48588E-004	0,00000E+000	7,79998E-001	0,00000E+000	9	...........	-32768,00
	723	14,48	7,76936E-001	1,46420E-004	0,00000E+000	7,76998E-001	0,00000E+000	9	...........	-32768,00
	726	14,54	7,73937E-001	1,44290E-004	0,00000E+000	7,73998E-001	0,00000E+000	9	...........	-32768,00
	729	14,6	7,70956E-001	1,42181E-004	0,00000E+000	7,70998E-001	0,00000E+000	9	...........	-32768,00
	732	14,66	7,67920E-001	1,40263E-004	0,00000E+000	7,67997E-001	0,00000E+000	9	...........	-32768,00
	735	14,72	7,64927E-001	1,38368E-004	0,00000E+000	7,64997E-001	0,00000E+000	9	...........	-32768,00
	738	14,78	7,61928E-001	1,36620E-004	0,00000E+000	7,61997E-001	0,00000E+000	9	...........	-32768,00
	741	14,84	7,58938E-001	1,34757E-004	0,00000E+000	7,58997E-001	0,00000E+000	9	...........	-32768,00
	744	14,9	7,55925E-001	1,33040E-004	0,00000E+000	7,55996E-001	0,00000E+000	9	...........	-32768,00
	747	14,96	7,52939E-001	1,31325E-004	0,00000E+000	7,52996E-001	0,00000E+000	9	...........	-32768,00
	750	15,02	7,49936E-001	1,29625E-004	0,00000E+000	7,49996E-001	0,00000E+000	9	...........	-32768,00
	753	15,08	7,46955E-001	1,28032E-004	0,00000E+000	7,46996E-001	0,00000E+000	9	...........	-32768,00
	756	15,14	7,43957E-001	1,26478E-004	0,00000E+000	7,43995E-001	0,00000E+000	9	...........	-32768,00
	759	15,2	7,40924E-001	1,24957E-004	0,00000E+000	7,40995E-001	0,00000E+000	9	...........	-32768,00
	762	15,26	7,37932E-001	1,23419E-004	0,00000E+000	7,37995E-001	0,00000E+000	9	...........	-32768,00
	765	15,32	7,34930E-001	1,21992E-004	0,00000E+000	7,34995E-001	0,00000E+000	9	...........	-32768,00
	768	15,38	7,31938E-001	1,20510E-004	0,00000E+000	7,31994E-001	0,00000E+000	9	...........	-32768,00
	771	15,44	7,28926E-001	1,18975E-004	0,00000E+000	7,28994E-001	0,00000E+000	9	...........	-32768,00
	774	15,5	7,25926E-001	1,17549E-004	0,00000E+000	7,25994E-001	0,00000E+000	9	...........	-32768,00
	777	15,56	7,22952E-001	1,16230E-004	0,00000E+000	7,23006E-001	0,00000E+000	9	...........	-32768,00
	780	15,62	7,19944E-001	1,14767E-004	0,00000E+000	7,20006E-001	0,00000E+000	9	...........	-32768,00
	783	15,68	7,16920E-001	1,13472E-004	0,00000E+000	7,17006E-001	0,00000E+000	9	...........	-32768,00
	786	15,74	7,13919E-001	1,12091E-004	0,00000E+000	7,14005E-001	0,00000E+000	9	...........	-32768,00
	789	15,8	7,10924E-001	1,10801E-004	0,00000E+000	7,11005E-001	0,00000E+000	9	...........	-32768,00
	792	15,86	7,07924E-001	1,09525E-004	0,00000E+000	7,08005E-001	0,00000E+000	9	...........	-32768,00
	795	15,92	7,04911E-001	1,08154E-004	0,00000E+000	7,05005E-001	0,00000E+000	9	...........	-32768,00
	798	15,98	7,01915E-001	1,06854E-004	0,00000E+000	7,02004E-001	0,00000E+000	9	...........	-32768,00
	801	16,04	6,98929E-001	1,05586E-004	0,00000E+000	6,99004E-001	0,00000E+000	9	...........	-32768,00
	804	16,1	6,95927E-001	1,04335E-004	0,00000E+000	6,96004E-001	0,00000E+000	9	...........	-32768,00
	807	16,16	6,92938E-001	1,03157E-004	0,00000E+000	6,93004E-001	0,00000E+000	9	...........	-32768,00
	810	16,22	6,89922E-001	1,01828E-004	0,00000E+000	6,90004E-001	0,00000E+000	9	...........	-32768,00
	813	16,28	6,86920E-001	1,00613E-004	0,00000E+000	6,87003E-001	0,00000E+000	9	...........	-32768,00
	816	16,34	6,83927E-001	9,93973E-005	0,00000E+000	6,84003E-001	0,00000E+000	9	...........	-32768,00
	819	16,4	6,80936E-001	9,81851E-005	0,00000E+000	6,81003E-001	0,00000E+000	9	...........	-32768,00
	822	16,46	6,77901E-001	9,70455E-005	0,00000E+000	6,78003E-001	0,00000E+000	9	...........	-32768,00
	825	16,52	6,74907E-001	9,58542E-005	0,00000E+000	6,75002E-001	0,00000E+000	9	...........	-32768,00
	828	16,58	6,71908E-001	9,46873E-005	0,00000E+000	6,72002E-001	0,00000E+000	9	...........	-32768,00
	831	16,64	6,68916E-001	9,35301E-005	0,00000E+000	6,69002E-001	0,00000E+000	9	...........	-32768,00
	834	16,7	6,65901E-001	9,24533E-005	0,00000E+000	6,66002E-001	0,00000E+000	9	...........	-32768,00
	837	16,76	6,62914E-001	9,13455E-005	0,00000E+000	6,63001E-001	0,00000E+000	9	...........	-32768,00
	840	16,82	6,59903E-001	9,00987E-005	0,00000E+000	6,60001E-001	0,00000E+000	9	...........	-32768,00
	843	16,88	6,56918E-001	8,90125E-005	0,00000E+000	6,57001E-001	0,00000E+000	9	...........	-32768,00
	846	16,94	6,53915E-001	8,78646E-005	0,00000E+000	6,54001E-001	0,00000E+000	9	...........	-32768,00
	849	17	6,50903E-001	8,67856E-005	0,00000E+000	6,51000E-001	0,00000E+000	9	...........	-32768,00
	852	17,06	6,47911E-001	8,57022E-005	0,00000E+000	6,48000E-001	0,00000E+000	9	...........	-32768,00
	855	17,12	6,44905E-001	8,45794E-005	0,00000E+000	6,45000E-001	0,00000E+000	9	...........	-32768,00
	858	17,18	6,41917E-001	8,34973E-005	0,00000E+000	6,42000E-001	0,00000E+000	9	...........	-32768,00
	861	17,24	6,38897E-001	8,24055E-005	0,00000E+000	6,38999E-001	0,00000E+000	9	...........	-32768,00
	864	17,3	6,35907E-001	8,13081E-005	0,00000E+000	6,35999E-001	0,00000E+000	9	...........	-32768,00
	867	17,36	6,32899E-001	8,02499E-005	0,00000E+000	6,32999E-001	0,00000E+000	8	...........	-32768,00
	870	17,42	6,29900E-001	7,92389E-005	0,00000E+000	6,29999E-001	0,00000E+000	8	...........	-32768,00
	873	17,48	6,26883E-001	7,81858E-005	0,00000E+000	6,26998E-001	0,00000E+000	8	...........	-32768,00
	876	17,54	6,23886E-001	7,70970E-005	0,00000E+000	6,23998E-001	0,00000E+000	8	...........	-32768,00
	879	17,6	6,20883E-001	7,60466E-005	0,00000E+000	6,20998E-001	0,00000E+000	8	...........	-32768,00
	882	17,66	6,17895E-001	7,50446E-005	0,00000E+000	6,17998E-001	0,00000E+000	8	...........	-32768,00
	885	17,72	6,14877E-001	7,40023E-005	0,00000E+000	6,14998E-001	0,00000E+000	8	...........	-32768,00
	888	17,78	6,11889E-001	7,29845E-005	0,00000E+000	6,11997E-001	0,00000E+000	8	...........	-32768,00
	891	17,84	6,08888E-001	7,19886E-005	0,00000E+000	6,08997E-001	0,00000E+000	8	...........	-32768,00
	894	17,9	6,05898E-001	7,09755E-005	0,00000E+000	6,05997E-001	0,00000E+000	8	...........	-32768,00
	897	17,96	6,02907E-001	7,00072E-005	0,00000E+000	6,02997E-001	0,00000E+000	8	...........	-32768,00
	900	18,02	5,99879E-001	6,90492E-005	0,00000E+000	5,99996E-001	0,00000E+000	8	...........	-32768,00
	903	18,08	5,96885E-001	6,80818E-005	0,00000E+000	5,96996E-001	0,00000E+000	8	...........	-32768,00
	906	18,14	5,93887E-001	6,71533E-005	0,00000E+000	5,93996E-001	0,00000E+000	8	...........	-32768,00
	909	18,2	5,90893E-001	6,62363E-005	0,00000E+000	5,90996E-001	0,00000E+000	8	...........	-32768,00
	912	18,26	5,87883E-001	6,53554E-005	0,00000E+000	5,87995E-001	0,00000E+000	8	...........	-32768,00
	915	18,32	5,84882E-001	6,44832E-005	0,00000E+000	5,84995E-001	0,00000E+000	8	...........	-32768,00
	918	18,38	5,81879E-001	6,36590E-005	0,00000E+000	5,81995E-001	0,00000E+000	8	...........	-32768,00
	921	18,44	5,78888E-001	6,28154E-005	0,00000E+000	5,78995E-001	0,00000E+000	8	...........	-32768,00
	924	18,5	5,75866E-001	6,19998E-005	0,00000E+000	5,75994E-001	0,00000E+000	8	...........	-32768,00
	927	18,56	5,72863E-001	6,11739E-005	0,00000E+000	5,72994E-001	0,00000E+000	8	...........	-32768,00
	930	18,62	5,69874E-001	6,03835E-005	0,00000E+000	5,69994E-001	0,00000E+000	8	...........	-32768,00
	933	18,68	5,66884E-001	5,95929E-005	0,00000E+000	5,67006E-001	0,00000E+000	8	...........	-32768,00
	936	18,74	5,63883E-001	5,87944E-005	0,00000E+000	5,64006E-001	0,00000E+000	8	...........	-32768,00
	939	18,8	5,60864E-001	5,79986E-005	0,00000E+000	5,61006E-001	0,00000E+000	8	...........	-32768,00
	942	18,86	5,57888E-001	5,72059E-005	0,00000E+000	5,58005E-001	0,00000E+000	8	...........	-32768,00
	945	18,92	5,54890E-001	5,64332E-005	0,00000E+000	5,55005E-001	0,00000E+000	8	...........	-32768,00
	948	18,98	5,51917E-001	5,56468E-005	0,00000E+000	5,52005E-001	0,00000E+000	8	...........	-32768,00
	951	19,04	5,48880E-001	5,48754E-005	0,00000E+000	5,49005E-001	0,00000E+000	8	...........	-32768,00
	954	19,1	5,45897E-001	5,40955E-005	0,00000E+000	5,46004E-001	0,00000E+000	8	...........	-32768,00
	957	19,16	5,42888E-001	5,33420E-005	0,00000E+000	5,43004E-001	0,00000E+000	8	...........	-32768,00
	960	19,22	5,39894E-001	5,25393E-005	0,00000E+000	5,40004E-001	0,00000E+000	8	...........	-32768,00
	963	19,28	5,36889E-001	5,17570E-005	0,00000E+000	5,37004E-001	0,00000E+000	8	...........	-32768,00
	966	19,34	5,33886E-001	5,09836E-005	0,00000E+000	5,34003E-001	0,00000E+000	8	...........	-32768,00
	969	19,4	5,30894E-001	5,02211E-005	0,00000E+000	5,31003E-001	0,00000E+000	8	...........	-32768,00
	972	19,46	5,27884E-001	4,94395E-005	0,00000E+000	5,28003E-001	0,00000E+000	8	...........	-32768,00
	975	19,52	5,24864E-001	4,86682E-005	0,00000E+000	5,25003E-001	0,00000E+000	8	...........	-32768,00
	978	19,58	5,21878E-001	4,78916E-005	0,00000E+000	5,22003E-001	0,00000E+000	8	...........	-32768,00
	981	19,64	5,18867E-001	4,71123E-005	0,00000E+000	5,19002E-001	0,00000E+000	8	...........	-32768,00
	984	19,7	5,15877E-001	4,63121E-005	0,00000E+000	5,16002E-001	0,00000E+000	8	...........	-32768,00
	987	19,76	5,12884E-001	4,55573E-005	0,00000E+000	5,13002E-001	0,00000E+000	8	...........	-32768,00
	990	19,82	5,09870E-001	4,47569E-005	0,00000E+000	5,10002E-001	0,00000E+000	8	...........	-32768,00
	993	19,88	5,06873E-001	4,39763E-005	0,00000E+000	5,07001E-001	0,00000E+000	8	...........	-32768,00
	996	19,94	5,03873E-001	4,31716E-005	0,00000E+000	5,04001E-001	0,00000E+000	8	...........	-32768,00
	999	20	5,00881E-001	4,23896E-005	0,00000E+000	5,01001E-001	0,00000E+000	8	...........	-32768,00
	1002	20,06	4,97856E-001	4,16035E-005	0,00000E+000	4,98001E-001	0,00000E+000	8	...........	-32768,00
	1005	20,12	4,94858E-001	4,07637E-005	0,00000E+000	4,95000E-001	0,00000E+000	8	...........	-32768,00
	1008	20,18	4,91878E-001	3,99505E-005	0,00000E+000	4,92000E-001	0,00000E+000	8	...........	-32768,00
	1011	20,24	4,88883E-001	3,91467E-005	0,00000E+000	4,89000E-001	0,00000E+000	8	...........	-32768,00
	1014	20,3	4,85858E-001	3,83243E-005	0,00000E+000	4,86000E-001	0,00000E+000	8	...........	-32768,00
	1017	20,36	4,82859E-001	3,75338E-005	0,00000E+000	4,82999E-001	0,00000E+000	8	...........	-32768,00
	1020	20,42	4,79875E-001	3,66955E-005	0,00000E+000	4,79999E-001	0,00000E+000	8	...........	-32768,00
	1023	20,48	4,76872E-001	3,58871E-005	0,00000E+000	4,76999E-001	0,00000E+000	8	...........	-32768,00
	1026	20,54	4,73858E-001	3,50487E-005	0,00000E+000	4,73999E-001	0,00000E+000	8	...........	-32768,00
	1029	20,6	4,70852E-001	3,41786E-005	0,00000E+000	4,70998E-001	0,00000E+000	8	...........	-32768,00
	1032	20,66	4,67863E-001	3,33019E-005	0,00000E+000	4,67998E-001	0,00000E+000	8	...........	-32768,00
	1035	20,72	4,64862E-001	3,23756E-005	0,00000E+000	4,64998E-001	0,00000E+000	8	...........	-32768,00
	1038	20,78	4,61873E-001	3,14354E-005	0,00000E+000	4,61998E-001	0,00000E+000	8	...........	-32768,00
	1041	20,84	4,58854E-001	3,03493E-005	0,00000E+000	4,58997E-001	0,00000E+000	8	...........	-32768,00
	1044	20,9	4,55855E-001	2,91789E-005	0,00000E+000	4,55997E-001	0,00000E+000	8	...........	-32768,00
	1047	20,96	4,52860E-001	2,77889E-005	0,00000E+000	4,52997E-001	0,00000E+000	8	...........	-32768,00
	1050	21,02	4,49858E-001	2,59329E-005	0,00000E+000	4,49997E-001	0,00000E+000	8	...........	-32768,00
	1053	21,08	4,46858E-001	2,36302E-005	0,00000E+000	4,46997E-001	0,00000E+000	8	...........	-32768,00
	1056	21,14	4,43844E-001	2,07127E-005	0,00000E+000	4,43996E-001	0,00000E+000	8	...........	-32768,00
	1059	21,2	4,40869E-001	1,70539E-005	0,00000E+000	4,40996E-001	0,00000E+000	8	...........	-32768,00
	1062	21,26	4,37875E-001	1,24674E-005	0,00000E+000	4,37996E-001	0,00000E+000	8	...........	-32768,00
	1065	21,32	4,34856E-001	7,09035E-006	0,00000E+000	4,34996E-001	0,00000E+000	8	...........	-32768,00
	1068	21,38	4,31857E-001	9,11225E-007	0,00000E+000	4,31995E-001	0,00000E+000	7	...........	-32768,00
	1071	21,44	4,28873E-001	-5,88626E-006	0,00000E+000	4,28995E-001	0,00000E+000	7	...........	-32768,00
	1074	21,5	4,25872E-001	-1,30476E-005	0,00000E+000	4,25995E-001	0,00000E+000	8	...........	-32768,00
	1077	21,56	4,22859E-001	-2,02805E-005	0,00000E+000	4,22995E-001	0,00000E+000	8	...........	-32768,00
	1080	21,62	4,19858E-001	-2,74269E-005	0,00000E+000	4,19994E-001	0,00000E+000	8	...........	-32768,00
	1083	21,68	4,16868E-001	-3,41456E-005	0,00000E+000	4,16994E-001	0,00000E+000	8	...........	-32768,00
	1086	21,74	4,13865E-001	-4,04765E-005	0,00000E+000	4,13994E-001	0,00000E+000	8	...........	-32768,00
	1089	21,8	4,10880E-001	-4,61856E-005	0,00000E+000	4,11006E-001	0,00000E+000	8	...........	-32768,00
	1092	21,86	4,07884E-001	-5,12663E-005	0,00000E+000	4,08006E-001	0,00000E+000	8	...........	-32768,00
	1095	21,92	4,04880E-001	-5,57829E-005	0,00000E+000	4,05006E-001	0,00000E+000	8	...........	-32768,00
	1098	21,98	4,01885E-001	-5,96578E-005	0,00000E+000	4,02005E-001	0,00000E+000	8	...........	-32768,00
	1101	22,04	3,98884E-001	-6,29952E-005	0,00000E+000	3,99005E-001	0,00000E+000	8	...........	-32768,00
	1104	22,1	3,95875E-001	-6,59631E-005	0,00000E+000	3,96005E-001	0,00000E+000	8	...........	-32768,00
	1107	22,16	3,92885E-001	-6,83413E-005	0,00000E+000	3,93005E-001	0,00000E+000	8	...........	-32768,00
	1110	22,22	3,89882E-001	-7,05568E-005	0,00000E+000	3,90004E-001	0,00000E+000	8	...........	-32768,00
	1113	22,28	3,86883E-001	-7,22881E-005	0,00000E+000	3,87004E-001	0,00000E+000	8	...........	-32768,00
	1116	22,34	3,83866E-001	-7,38096E-005	0,00000E+000	3,84004E-001	0,00000E+000	8	...........	-32768,00
	1119	22,4	3,80869E-001	-7,49286E-005	0,00000E+000	3,81004E-001	0,00000E+000	8	...........	-32768,00
	1122	22,46	3,77884E-001	-7,58209E-005	0,00000E+000	3,78003E-001	0,00000E+000	8	...........	-32768,00
	1125	22,52	3,74887E-001	-7,64403E-005	0,00000E+000	3,75003E-001	0,00000E+000	8	...........	-32768,00
	1128	22,58	3,71859E-001	-7,67133E-005	0,00000E+000	3,72003E-001	0,00000E+000	8	...........	-32768,00
	1131	22,64	3,68863E-001	-7,70906E-005	0,00000E+000	3,69003E-001	0,00000E+000	8	...........	-32768,00
	1134	22,7	3,65868E-001	-7,69800E-005	0,00000E+000	3,66003E-001	0,00000E+000	8	...........	-32768,00
	1137	22,76	3,62880E-001	-7,68236E-005	0,00000E+000	3,63002E-001	0,00000E+000	8	...........	-32768,00
	1140	22,82	3,59891E-001	-7,64530E-005	0,00000E+000	3,60002E-001	0,00000E+000	8	...........	-32768,00
	1143	22,88	3,56865E-001	-7,59833E-005	0,00000E+000	3,57002E-001	0,00000E+000	8	...........	-32768,00
	1146	22,94	3,53857E-001	-7,53197E-005	0,00000E+000	3,54002E-001	0,00000E+000	8	...........	-32768,00
	1149	23	3,50861E-001	-7,45804E-005	0,00000E+000	3,51001E-001	0,00000E+000	8	...........	-32768,00
	1152	23,06	3,47876E-001	-7,37188E-005	0,00000E+000	3,48001E-001	0,00000E+000	8	...........	-32768,00
	1155	23,12	3,44862E-001	-7,29368E-005	0,00000E+000	3,45001E-001	0,00000E+000	8	...........	-32768,00
	1158	23,18	3,41861E-001	-7,19489E-005	0,00000E+000	3,42001E-001	0,00000E+000	8	...........	-32768,00
	1161	23,24	3,38862E-001	-7,09806E-005	0,00000E+000	3,39000E-001	0,00000E+000	8	...........	-32768,00
	1164	23,3	3,35870E-001	-7,00475E-005	0,00000E+000	3,36000E-001	0,00000E+000	8	...........	-32768,00
	1167	23,36	3,32861E-001	-6,90202E-005	0,00000E+000	3,33000E-001	0,00000E+000	8	...........	-32768,00
	1170	23,42	3,29855E-001	-6,79494E-005	0,00000E+000	3,30000E-001	0,00000E+000	8	...........	-32768,00
	1173	23,48	3,26857E-001	-6,69223E-005	0,00000E+000	3,26999E-001	0,00000E+000	8	...........	-32768,00
	1176	23,54	3,23875E-001	-6,57353E-005	0,00000E+000	3,23999E-001	0,00000E+000	8	...........	-32768,00
	1179	23,6	3,20878E-001	-6,47986E-005	0,00000E+000	3,20999E-001	0,00000E+000	8	...........	-32768,00
	1182	23,66	3,17869E-001	-6,39030E-005	0,00000E+000	3,17999E-001	0,00000E+000	8	...........	-32768,00
	1185	23,72	3,14859E-001	-6,30840E-005	0,00000E+000	3,14998E-001	0,00000E+000	8	...........	-32768,00
	1188	23,78	3,11861E-001	-6,22383E-005	0,00000E+000	3,11998E-001	0,00000E+000	8	...........	-32768,00
	1191	23,84	3,08860E-001	-6,14170E-005	0,00000E+000	3,08998E-001	0,00000E+000	8	...........	-32768,00
	1194	23,9	3,05855E-001	-6,05596E-005	0,00000E+000	3,05998E-001	0,00000E+000	8	...........	-32768,00
	1197	23,96	3,02850E-001	-5,98439E-005	0,00000E+000	3,02997E-001	0,00000E+000	8	...........	-32768,00
	1200	24,02	2,99846E-001	-5,92223E-005	0,00000E+000	2,99997E-001	0,00000E+000	8	...........	-32768,00
	1203	24,08	2,96859E-001	-5,85899E-005	0,00000E+000	2,96997E-001	0,00000E+000	8	...........	-32768,00
	1206	24,14	2,93839E-001	-5,80524E-005	0,00000E+000	2,93997E-001	0,00000E+000	8	...........	-32768,00
	1209	24,2	2,90845E-001	-5,75796E-005	0,00000E+000	2,90996E-001	0,00000E+000	8	...........	-32768,00
	1212	24,26	2,87860E-001	-5,71064E-005	0,00000E+000	2,87996E-001	0,00000E+000	8	...........	-32768,00
	1215	24,32	2,84856E-001	-5,66795E-005	0,00000E+000	2,84996E-001	0,00000E+000	8	...........	-32768,00
	1218	24,38	2,81855E-001	-5,63099E-005	0,00000E+000	2,81996E-001	0,00000E+000	8	...........	-32768,00
	1221	24,44	2,78846E-001	-5,59735E-005	0,00000E+000	2,78996E-001	0,00000E+000	8	...........	-32768,00
	1224	24,5	2,75851E-001	-5,56443E-005	0,00000E+000	2,75995E-001	0,00000E+000	8	...........	-32768,00
	1227	24,56	2,72856E-001	-5,53996E-005	0,00000E+000	2,72995E-001	0,00000E+000	8	...........	-32768,00
	1230	24,62	2,69864E-001	-5,52507E-005	0,00000E+000	2,69995E-001	0,00000E+000	8	...........	-32768,00
	1233	24,68	2,66845E-001	-5,49824E-005	0,00000E+000	2,66995E-001	0,00000E+000	8	...........	-32768,00
	1236	24,74	2,63857E-001	-5,48393E-005	0,00000E+000	2,63994E-001	0,00000E+000	8	...........	-32768,00
	1239	24,8	2,60855E-001	-5,49152E-005	0,00000E+000	2,60994E-001	0,00000E+000	8	...........	-32768,00
	1242	24,86	2,57861E-001	-5,46371E-005	0,00000E+000	2,57994E-001	0,00000E+000	8	...........	-32768,00
	1245	24,92	2,54843E-001	-5,46914E-005	0,00000E+000	2,55006E-001	0,00000E+000	8	...........	-32768,00
	1248	24,98	2,51848E-001	-5,45617E-005	0,00000E+000	2,52006E-001	0,00000E+000	8	...........	-32768,00
	1251	25,04	2,48854E-001	-5,46095E-005	0,00000E+000	2,49006E-001	0,00000E+000	8	...........	-32768,00
	1254	25,1	2,45863E-001	-5,46769E-005	0,00000E+000	2,46005E-001	0,00000E+000	8	...........	-32768,00
	1257	25,16	2,42830E-001	-5,43417E-005	0,00000E+000	2,43005E-001	0,00000E+000	8	...........	-32768,00
	1260	25,22	2,39846E-001	-5,43399E-005	0,00000E+000	2,40005E-001	0,00000E+000	8	...........	-32768,00
	1263	25,28	2,36839E-001	-5,44185E-005	0,00000E+000	2,37005E-001	0,00000E+000	8	...........	-32768,00
	1266	25,34	2,33853E-001	-5,46226E-005	0,00000E+000	2,34004E-001	0,00000E+000	8	...........	-32768,00
	1269	25,4	2,30851E-001	-5,46605E-005	0,00000E+000	2,31004E-001	0,00000E+000	8	...........	-32768,00
	1272	25,46	2,27852E-001	-5,47238E-005	0,00000E+000	2,28004E-001	0,00000E+000	8	...........	-32768,00
	1275	25,52	2,24849E-001	-5,48654E-005	0,00000E+000	2,25004E-001	0,00000E+000	8	...........	-32768,00
	1278	25,58	2,21854E-001	-5,49805E-005	0,00000E+000	2,22003E-001	0,00000E+000	8	...........	-32768,00
	1281	25,64	2,18865E-001	-5,51051E-005	0,00000E+000	2,19003E-001	0,00000E+000	8	...........	-32768,00
	1284	25,7	2,15838E-001	-5,52435E-005	0,00000E+000	2,16003E-001	0,00000E+000	8	...........	-32768,00
	1287	25,76	2,12841E-001	-5,54091E-005	0,00000E+000	2,13003E-001	0,00000E+000	8	...........	-32768,00
	1290	25,82	2,09845E-001	-5,56393E-005	0,00000E+000	2,10003E-001	0,00000E+000	8	...........	-32768,00
	1293	25,88	2,06839E-001	-5,58582E-005	0,00000E+000	2,07002E-001	0,00000E+000	8	...........	-32768,00
	1296	25,94	2,03835E-001	-5,60274E-005	0,00000E+000	2,04002E-001	0,00000E+000	8	...........	-32768,00
	1299	26	2,00849E-001	-5,62377E-005	0,00000E+000	2,01002E-001	0,00000E+000	8	...........	-32768,00
	1302	26,06	1,97835E-001	-5,64202E-005	0,00000E+000	1,98002E-001	0,00000E+000	8	...........	-32768,00
	1305	26,12	1,94849E-001	-5,66302E-005	0,00000E+000	1,95001E-001	0,00000E+000	8	...........	-32768,00
	1308	26,18	1,91836E-001	-5,69572E-005	0,00000E+000	1,92001E-001	0,00000E+000	8	...........	-32768,00
	1311	26,24	1,88837E-001	-5,72015E-005	0,00000E+000	1,89001E-001	0,00000E+000	8	...........	-32768,00
	1314	26,3	1,85843E-001	-5,74682E-005	0,00000E+000	1,86001E-001	0,00000E+000	8	...........	-32768,00
	1317	26,36	1,82839E-001	-5,76537E-005	0,00000E+000	1,83000E-001	0,00000E+000	8	...........	-32768,00
	1320	26,42	1,79863E-001	-5,81004E-005	0,00000E+000	1,80000E-001	0,00000E+000	8	...........	-32768,00
	1323	26,48	1,76857E-001	-5,85485E-005	0,00000E+000	1,77000E-001	0,00000E+000	8	...........	-32768,00
	1326	26,54	1,73847E-001	-5,87607E-005	0,00000E+000	1,74000E-001	0,00000E+000	8	...........	-32768,00
	1329	26,6	1,70859E-001	-5,90376E-005	0,00000E+000	1,70999E-001	0,00000E+000	8	...........	-32768,00
	1332	26,66	1,67851E-001	-5,94405E-005	0,00000E+000	1,67999E-001	0,00000E+000	8	...........	-32768,00
	1335	26,72	1,64835E-001	-5,99350E-005	0,00000E+000	1,64999E-001	0,00000E+000	8	...........	-32768,00
	1338	26,78	1,61835E-001	-6,03342E-005	0,00000E+000	1,61999E-001	0,00000E+000	8	...........	-32768,00
	1341	26,84	1,58841E-001	-6,06910E-005	0,00000E+000	1,58998E-001	0,00000E+000	8	...........	-32768,00
	1344	26,9	1,55838E-001	-6,11233E-005	0,00000E+000	1,55998E-001	0,00000E+000	8	...........	-32768,00
	1347	26,96	1,52819E-001	-6,15942E-005	0,00000E+000	1,52998E-001	0,00000E+000	8	...........	-32768,00
	1350	27,02	1,49841E-001	-6,20607E-005	0,00000E+000	1,49998E-001	0,00000E+000	8	...........	-32768,00
	1353	27,08	1,46830E-001	-6,25878E-005	0,00000E+000	1,46997E-001	0,00000E+000	8	...........	-32768,00
	1356	27,14	1,43837E-001	-6,30916E-005	0,00000E+000	1,43997E-001	0,00000E+000	8	...........	-32768,00
	1359	27,2	1,40809E-001	-6,36378E-005	0,00000E+000	1,40997E-001	0,00000E+000	8	...........	-32768,00
	1362	27,26	1,37829E-001	-6,41525E-005	0,00000E+000	1,37997E-001	0,00000E+000	8	...........	-32768,00
	1365	27,32	1,34823E-001	-6,49094E-005	0,00000E+000	1,34997E-001	0,00000E+000	8	...........	-32768,00
	1368	27,38	1,31846E-001	-6,53774E-005	0,00000E+000	1,31996E-001	0,00000E+000	8	...........	-32768,00
	1371	27,44	1,28844E-001	-6,60118E-005	0,00000E+000	1,28996E-001	0,00000E+000	8	...........	-32768,00
	1374	27,5	1,25834E-001	-6,66371E-005	0,00000E+000	1,25996E-001	0,00000E+000	8	...........	-32768,00
	1377	27,56	1,22839E-001	-6,72870E-005	0,00000E+000	1,22996E-001	0,00000E+000	8	...........	-32768,00
	1380	27,62	1,19832E-001	-6,78654E-005	0,00000E+000	1,19995E-001	0,00000E+000	8	...........	-32768,00
	1383	27,68	1,16850E-001	-6,85859E-005	0,00000E+000	1,16995E-001	0,00000E+000	8	...........	-32768,00
	1386	27,74	1,13823E-001	-6,91717E-005	0,00000E+000	1,13995E-001	0,00000E+000	8	...........	-32768,00
	1389	27,8	1,10827E-001	-6,98328E-005	0,00000E+000	1,10995E-001	0,00000E+000	8	...........	-32768,00
	1392	27,86	1,07835E-001	-7,04603E-005	0,00000E+000	1,07994E-001	0,00000E+000	8	...........	-32768,00
	1395	27,92	1,04827E-001	-7,12401E-005	0,00000E+000	1,04994E-001	0,00000E+000	8	...........	-32768,00
	1398	27,98	1,01835E-001	-7,18534E-005	0,00000E+000	1,01994E-001	0,00000E+000	8	...........	-32768,00
	1400	28,02	9,98352E-002	-7,22334E-005	0,00000E+000	1,00006E-001	0,00000E+000	8	...........	-32768,00