File: HOPG_cv/5mM/AgNO3_HOPG_5mM_10mv_1_cv.DTA
EXPLAIN
TAG	CV
TITLE	LABEL	Cyclic Voltammetry	Test &Identifier
DATE	LABEL	30/4/2022	Date
TIME	LABEL	14:27:46	Time
NOTES	NOTES	2	&Notes...
	30/04/22 , 5mM  AgNO3

PSTAT	PSTAT	IFC1000-09004	Potentiostat
VINIT	POTEN	1,00000E-001	F	Initial &E (V)
VLIMIT1	POTEN	1,00000E-001	F	Scan Limit &1 (V)
VLIMIT2	POTEN	8,00000E-001	F	Scan Limit &2 (V)
VFINAL	POTEN	1,00000E-001	F	Final &E (V)
SCANRATE	QUANT	9,99998E+000	&Scan Rate (mV/s)
STEPSIZE	QUANT	1,00000E+000	St&ep Size (mV)
CYCLES	IQUANT	1	C&ycles (#)
IMODE	SELECTOR	0	I/E Range &Mode
IRANGE	QUANT	1,00000E-005	&Max Current (mA)
AREA	QUANT	1,00000E+000	Electrode &Area (cm^2)
ELECTRODETYPE	SELECTOR	0	Electrode Type
STRIPPING	TOGGLE	F	Used for Stripping
POLARITY	TOGGLE	F	Signal Polarity
CONDIT	TWOPARAM	F	1,50000E+001	0,00000E+000	Conditionin&g	Time(s)	E(V)
DELAY	TWOPARAM	F	3,00000E+001	0,00000E+000	Init. De&lay	Time(s)	Stab.(mV/s)
EQDELAY	QUANT	1,00000E+001	Equil. &Time (s)
IRCOMP	SELECTOR	0	IRCom&p
PFCOR	QUANT	5,00000E+001	PF Corr. (ohm)
SAMPLINGMODE	SELECTOR	1	Sampling &Mode
EOC	QUANT	0	Open Circuit (V)
PSTATMODEL	IQUANT	48	Pstat Model
PSTATSECTION	LABEL	IFC1000-09004	Pstat Section
PSTATSERIALNO	LABEL	09004	Pstat Serial Number
CTRLMODE	IQUANT	1	Control Mode
ELECTROMETER	IQUANT	0	RE=0 or CS=1
IESTAB	IQUANT	2	I/E Stability
CASPEED	IQUANT	4	Control Amp Speed
CONVENTION	IQUANT	1	Current Convention
ICHRANGE	IQUANT	2	Ich Range
ICHRANGEMODE	TOGGLE	F	Ich Auto Range
ICHOFFSETENABLE	TOGGLE	F	Ich Offset Enable
ICHOFFSET	QUANT	0	Ich Offset (V)
ICHFILTER	IQUANT	3	Ich Filter
VCHRANGE	IQUANT	2	Vch Range
VCHRANGEMODE	TOGGLE	F	Vch Auto Range
VCHOFFSETENABLE	TOGGLE	F	Vch Offset Enable
VCHOFFSET	QUANT	0	Vch Offset (V)
VCHFILTER	IQUANT	3	Vch Filter
IERANGELOWERLIMIT	IQUANT	4	I/E Range Lower Limit
IERANGEMODE	TOGGLE	T	I/E AutoRange
IERANGE	IQUANT	5	I/E Range
ACHSELECT	IQUANT	0	Ach Select
ACHRANGE	IQUANT	2	Ach Range
ACHOFFSETENABLE	TOGGLE	F	Ach Offset Enable
ACHOFFSET	QUANT	0	Ach Offset (V)
ACHFILTER	IQUANT	1	Ach Filter
CABLEID	IQUANT	14	Cable ID
DCCALDATE	LABEL	3/18/2022	DC Calibration Date
ACCALDATE	LABEL	3/10/2016	AC Calibration Date
FRAMEWORKVERSION	QUANT	7,05	Framework Version
INSTRUMENTVERSION	LABEL	4.21	Instrument Version
CURVE1	TABLE
	Pt	T	Vf	Im	Vu	Sig	Ach	IERange	Over	Temp
	#	s	V vs. Ref.	A	V	V	V	#	bits	deg C
	0	0,1	9,98621E-002	-1,09478E-005	0,00000E+000	1,00006E-001	0,00000E+000	7	....ih..i..	-32768,00
	3	0,4	1,02811E-001	-3,70722E-005	0,00000E+000	1,02994E-001	0,00000E+000	8	...........	-32768,00
	6	0,7	1,05816E-001	-3,57223E-005	0,00000E+000	1,05994E-001	0,00000E+000	8	...........	-32768,00
	9	1	1,08810E-001	-3,45483E-005	0,00000E+000	1,08994E-001	0,00000E+000	8	...........	-32768,00
	12	1,3	1,11811E-001	-3,34240E-005	0,00000E+000	1,11995E-001	0,00000E+000	8	...........	-32768,00
	15	1,6	1,14806E-001	-3,23199E-005	0,00000E+000	1,14995E-001	0,00000E+000	8	...........	-32768,00
	18	1,9	1,17833E-001	-3,14539E-005	0,00000E+000	1,17995E-001	0,00000E+000	8	...........	-32768,00
	21	2,2	1,20826E-001	-3,04553E-005	0,00000E+000	1,20995E-001	0,00000E+000	8	...........	-32768,00
	24	2,5	1,23809E-001	-2,94553E-005	0,00000E+000	1,23996E-001	0,00000E+000	8	...........	-32768,00
	27	2,8	1,26816E-001	-2,86279E-005	0,00000E+000	1,26996E-001	0,00000E+000	8	...........	-32768,00
	30	3,1	1,29832E-001	-2,77831E-005	0,00000E+000	1,29996E-001	0,00000E+000	8	...........	-32768,00
	33	3,4	1,32826E-001	-2,68750E-005	0,00000E+000	1,32996E-001	0,00000E+000	8	...........	-32768,00
	36	3,7	1,35832E-001	-2,60569E-005	0,00000E+000	1,35997E-001	0,00000E+000	8	...........	-32768,00
	39	4	1,38822E-001	-2,54020E-005	0,00000E+000	1,38997E-001	0,00000E+000	8	...........	-32768,00
	42	4,3	1,41829E-001	-2,45555E-005	0,00000E+000	1,41997E-001	0,00000E+000	8	...........	-32768,00
	45	4,6	1,44823E-001	-2,37628E-005	0,00000E+000	1,44997E-001	0,00000E+000	8	...........	-32768,00
	48	4,9	1,47820E-001	-2,31495E-005	0,00000E+000	1,47998E-001	0,00000E+000	8	...........	-32768,00
	51	5,2	1,50809E-001	-2,25280E-005	0,00000E+000	1,50998E-001	0,00000E+000	8	...........	-32768,00
	54	5,5	1,53820E-001	-2,17825E-005	0,00000E+000	1,53998E-001	0,00000E+000	8	...........	-32768,00
	57	5,8	1,56829E-001	-2,11504E-005	0,00000E+000	1,56998E-001	0,00000E+000	8	...........	-32768,00
	60	6,1	1,59826E-001	-2,05361E-005	0,00000E+000	1,59999E-001	0,00000E+000	8	...........	-32768,00
	63	6,4	1,62828E-001	-1,98557E-005	0,00000E+000	1,62999E-001	0,00000E+000	8	...........	-32768,00
	66	6,7	1,65808E-001	-1,92459E-005	0,00000E+000	1,65999E-001	0,00000E+000	8	...........	-32768,00
	69	7	1,68837E-001	-1,86957E-005	0,00000E+000	1,68999E-001	0,00000E+000	8	...........	-32768,00
	72	7,3	1,71839E-001	-1,80962E-005	0,00000E+000	1,71999E-001	0,00000E+000	8	...........	-32768,00
	75	7,6	1,74825E-001	-1,74344E-005	0,00000E+000	1,75000E-001	0,00000E+000	8	...........	-32768,00
	78	7,9	1,77823E-001	-1,69320E-005	0,00000E+000	1,78000E-001	0,00000E+000	8	...........	-32768,00
	81	8,2	1,80853E-001	-1,63697E-005	0,00000E+000	1,81000E-001	0,00000E+000	8	...........	-32768,00
	84	8,5	1,83836E-001	-1,59134E-005	0,00000E+000	1,84000E-001	0,00000E+000	8	...........	-32768,00
	87	8,8	1,86835E-001	-1,52568E-005	0,00000E+000	1,87001E-001	0,00000E+000	8	...........	-32768,00
	90	9,1	1,89835E-001	-1,47317E-005	0,00000E+000	1,90001E-001	0,00000E+000	8	...........	-32768,00
	93	9,4	1,92849E-001	-1,42009E-005	0,00000E+000	1,93001E-001	0,00000E+000	8	...........	-32768,00
	96	9,7	1,95847E-001	-1,38220E-005	0,00000E+000	1,96001E-001	0,00000E+000	8	...........	-32768,00
	99	10	1,98825E-001	-1,31918E-005	0,00000E+000	1,99002E-001	0,00000E+000	8	...........	-32768,00
	102	10,3	2,01829E-001	-1,27828E-005	0,00000E+000	2,02002E-001	0,00000E+000	8	...........	-32768,00
	105	10,6	2,04821E-001	-1,22826E-005	0,00000E+000	2,05002E-001	0,00000E+000	8	...........	-32768,00
	108	10,9	2,07839E-001	-1,17424E-005	0,00000E+000	2,08002E-001	0,00000E+000	8	...........	-32768,00
	111	11,2	2,10834E-001	-1,11978E-005	0,00000E+000	2,11003E-001	0,00000E+000	8	...........	-32768,00
	114	11,5	2,13831E-001	-1,07182E-005	0,00000E+000	2,14003E-001	0,00000E+000	8	...........	-32768,00
	117	11,8	2,16829E-001	-1,02225E-005	0,00000E+000	2,17003E-001	0,00000E+000	8	...........	-32768,00
	120	12,1	2,19835E-001	-9,67067E-006	0,00000E+000	2,20003E-001	0,00000E+000	8	...........	-32768,00
	123	12,4	2,22836E-001	-9,14487E-006	0,00000E+000	2,23004E-001	0,00000E+000	8	...........	-32768,00
	126	12,7	2,25829E-001	-8,68151E-006	0,00000E+000	2,26004E-001	0,00000E+000	8	...........	-32768,00
	129	13	2,28823E-001	-8,07454E-006	0,00000E+000	2,29004E-001	0,00000E+000	8	...........	-32768,00
	132	13,3	2,31855E-001	-7,57065E-006	0,00000E+000	2,32004E-001	0,00000E+000	7	...........	-32768,00
	135	13,6	2,34847E-001	-7,17935E-006	0,00000E+000	2,35005E-001	0,00000E+000	7	...........	-32768,00
	138	13,9	2,37853E-001	-6,60197E-006	0,00000E+000	2,38005E-001	0,00000E+000	7	...........	-32768,00
	141	14,2	2,40847E-001	-6,09393E-006	0,00000E+000	2,41005E-001	0,00000E+000	7	...........	-32768,00
	144	14,5	2,43860E-001	-5,56466E-006	0,00000E+000	2,44005E-001	0,00000E+000	7	...........	-32768,00
	147	14,8	2,46835E-001	-5,07425E-006	0,00000E+000	2,47005E-001	0,00000E+000	7	...........	-32768,00
	150	15,1	2,49846E-001	-4,55040E-006	0,00000E+000	2,50006E-001	0,00000E+000	7	...........	-32768,00
	153	15,4	2,52829E-001	-4,02325E-006	0,00000E+000	2,53006E-001	0,00000E+000	7	...........	-32768,00
	156	15,7	2,55841E-001	-3,48130E-006	0,00000E+000	2,56006E-001	0,00000E+000	7	...........	-32768,00
	159	16	2,58838E-001	-2,97850E-006	0,00000E+000	2,58994E-001	0,00000E+000	7	...........	-32768,00
	162	16,3	2,61839E-001	-2,50921E-006	0,00000E+000	2,61994E-001	0,00000E+000	7	...........	-32768,00
	165	16,6	2,64827E-001	-1,95490E-006	0,00000E+000	2,64994E-001	0,00000E+000	7	...........	-32768,00
	168	16,9	2,67829E-001	-1,45163E-006	0,00000E+000	2,67995E-001	0,00000E+000	7	...........	-32768,00
	171	17,2	2,70830E-001	-8,55288E-007	0,00000E+000	2,70995E-001	0,00000E+000	7	...........	-32768,00
	174	17,5	2,73826E-001	-3,92571E-007	0,00000E+000	2,73995E-001	0,00000E+000	7	...........	-32768,00
	177	17,8	2,76837E-001	1,91058E-007	0,00000E+000	2,76995E-001	0,00000E+000	7	...........	-32768,00
	180	18,1	2,79822E-001	7,04719E-007	0,00000E+000	2,79996E-001	0,00000E+000	7	...........	-32768,00
	183	18,4	2,82846E-001	1,22720E-006	0,00000E+000	2,82996E-001	0,00000E+000	7	...........	-32768,00
	186	18,7	2,85850E-001	1,78221E-006	0,00000E+000	2,85996E-001	0,00000E+000	7	...........	-32768,00
	189	19	2,88834E-001	2,28630E-006	0,00000E+000	2,88996E-001	0,00000E+000	7	...........	-32768,00
	192	19,3	2,91832E-001	2,90527E-006	0,00000E+000	2,91997E-001	0,00000E+000	7	...........	-32768,00
	195	19,6	2,94821E-001	3,39261E-006	0,00000E+000	2,94997E-001	0,00000E+000	7	...........	-32768,00
	198	19,9	2,97837E-001	3,99050E-006	0,00000E+000	2,97997E-001	0,00000E+000	7	...........	-32768,00
	201	20,2	3,00829E-001	4,56572E-006	0,00000E+000	3,00997E-001	0,00000E+000	7	...........	-32768,00
	204	20,5	3,03840E-001	5,05677E-006	0,00000E+000	3,03998E-001	0,00000E+000	7	...........	-32768,00
	207	20,8	3,06821E-001	5,65313E-006	0,00000E+000	3,06998E-001	0,00000E+000	7	...........	-32768,00
	210	21,1	3,09844E-001	6,22045E-006	0,00000E+000	3,09998E-001	0,00000E+000	7	...........	-32768,00
	213	21,4	3,12844E-001	6,76686E-006	0,00000E+000	3,12998E-001	0,00000E+000	7	...........	-32768,00
	216	21,7	3,15832E-001	7,37287E-006	0,00000E+000	3,15998E-001	0,00000E+000	7	...........	-32768,00
	219	22	3,18822E-001	7,90653E-006	0,00000E+000	3,18999E-001	0,00000E+000	7	...........	-32768,00
	222	22,3	3,21853E-001	8,54603E-006	0,00000E+000	3,21999E-001	0,00000E+000	7	...........	-32768,00
	225	22,6	3,24833E-001	9,09871E-006	0,00000E+000	3,24999E-001	0,00000E+000	7	...........	-32768,00
	228	22,9	3,27847E-001	9,65402E-006	0,00000E+000	3,27999E-001	0,00000E+000	8	...........	-32768,00
	231	23,2	3,30836E-001	1,01773E-005	0,00000E+000	3,31000E-001	0,00000E+000	8	...........	-32768,00
	234	23,5	3,33862E-001	1,08554E-005	0,00000E+000	3,34000E-001	0,00000E+000	8	...........	-32768,00
	237	23,8	3,36858E-001	1,15149E-005	0,00000E+000	3,37000E-001	0,00000E+000	8	...........	-32768,00
	240	24,1	3,39854E-001	1,20610E-005	0,00000E+000	3,40000E-001	0,00000E+000	8	...........	-32768,00
	243	24,4	3,42843E-001	1,27113E-005	0,00000E+000	3,43001E-001	0,00000E+000	8	...........	-32768,00
	246	24,7	3,45845E-001	1,33331E-005	0,00000E+000	3,46001E-001	0,00000E+000	8	...........	-32768,00
	249	25	3,48847E-001	1,39476E-005	0,00000E+000	3,49001E-001	0,00000E+000	8	...........	-32768,00
	252	25,3	3,51843E-001	1,46250E-005	0,00000E+000	3,52001E-001	0,00000E+000	8	...........	-32768,00
	255	25,6	3,54841E-001	1,51792E-005	0,00000E+000	3,55002E-001	0,00000E+000	8	...........	-32768,00
	258	25,9	3,57832E-001	1,59158E-005	0,00000E+000	3,58002E-001	0,00000E+000	8	...........	-32768,00
	261	26,2	3,60847E-001	1,65002E-005	0,00000E+000	3,61002E-001	0,00000E+000	8	...........	-32768,00
	264	26,5	3,63850E-001	1,72619E-005	0,00000E+000	3,64002E-001	0,00000E+000	8	...........	-32768,00
	267	26,8	3,66849E-001	1,79826E-005	0,00000E+000	3,67003E-001	0,00000E+000	8	...........	-32768,00
	270	27,1	3,69847E-001	1,86535E-005	0,00000E+000	3,70003E-001	0,00000E+000	8	...........	-32768,00
	273	27,4	3,72877E-001	1,93647E-005	0,00000E+000	3,73003E-001	0,00000E+000	8	...........	-32768,00
	276	27,7	3,75858E-001	2,00875E-005	0,00000E+000	3,76003E-001	0,00000E+000	8	...........	-32768,00
	279	28	3,78859E-001	2,08487E-005	0,00000E+000	3,79004E-001	0,00000E+000	8	...........	-32768,00
	282	28,3	3,81866E-001	2,15983E-005	0,00000E+000	3,82004E-001	0,00000E+000	8	...........	-32768,00
	285	28,6	3,84869E-001	2,23777E-005	0,00000E+000	3,85004E-001	0,00000E+000	8	...........	-32768,00
	288	28,9	3,87870E-001	2,31547E-005	0,00000E+000	3,88004E-001	0,00000E+000	8	...........	-32768,00
	291	29,2	3,90866E-001	2,39533E-005	0,00000E+000	3,91005E-001	0,00000E+000	8	...........	-32768,00
	294	29,5	3,93856E-001	2,47441E-005	0,00000E+000	3,94005E-001	0,00000E+000	8	...........	-32768,00
	297	29,8	3,96849E-001	2,56190E-005	0,00000E+000	3,97005E-001	0,00000E+000	8	...........	-32768,00
	300	30,1	3,99857E-001	2,64367E-005	0,00000E+000	4,00005E-001	0,00000E+000	8	...........	-32768,00
	303	30,4	4,02870E-001	2,73418E-005	0,00000E+000	4,03005E-001	0,00000E+000	8	...........	-32768,00
	306	30,7	4,05856E-001	2,82468E-005	0,00000E+000	4,06006E-001	0,00000E+000	8	...........	-32768,00
	309	31	4,08853E-001	2,91674E-005	0,00000E+000	4,09006E-001	0,00000E+000	8	...........	-32768,00
	312	31,3	4,11853E-001	3,01678E-005	0,00000E+000	4,12006E-001	0,00000E+000	8	...........	-32768,00
	315	31,6	4,14850E-001	3,11336E-005	0,00000E+000	4,14994E-001	0,00000E+000	8	...........	-32768,00
	318	31,9	4,17867E-001	3,21340E-005	0,00000E+000	4,17994E-001	0,00000E+000	8	...........	-32768,00
	321	32,2	4,20832E-001	3,31459E-005	0,00000E+000	4,20994E-001	0,00000E+000	8	...........	-32768,00
	324	32,5	4,23863E-001	3,42262E-005	0,00000E+000	4,23995E-001	0,00000E+000	8	...........	-32768,00
	327	32,8	4,26865E-001	3,53048E-005	0,00000E+000	4,26995E-001	0,00000E+000	8	...........	-32768,00
	330	33,1	4,29863E-001	3,64432E-005	0,00000E+000	4,29995E-001	0,00000E+000	8	...........	-32768,00
	333	33,4	4,32864E-001	3,75724E-005	0,00000E+000	4,32995E-001	0,00000E+000	8	...........	-32768,00
	336	33,7	4,35844E-001	3,87032E-005	0,00000E+000	4,35996E-001	0,00000E+000	8	...........	-32768,00
	339	34	4,38854E-001	3,98142E-005	0,00000E+000	4,38996E-001	0,00000E+000	8	...........	-32768,00
	342	34,3	4,41851E-001	4,09041E-005	0,00000E+000	4,41996E-001	0,00000E+000	8	...........	-32768,00
	345	34,6	4,44842E-001	4,20111E-005	0,00000E+000	4,44996E-001	0,00000E+000	8	...........	-32768,00
	348	34,9	4,47847E-001	4,30994E-005	0,00000E+000	4,47997E-001	0,00000E+000	8	...........	-32768,00
	351	35,2	4,50852E-001	4,41343E-005	0,00000E+000	4,50997E-001	0,00000E+000	8	...........	-32768,00
	354	35,5	4,53852E-001	4,51485E-005	0,00000E+000	4,53997E-001	0,00000E+000	8	...........	-32768,00
	357	35,8	4,56850E-001	4,61627E-005	0,00000E+000	4,56997E-001	0,00000E+000	8	...........	-32768,00
	360	36,1	4,59839E-001	4,71522E-005	0,00000E+000	4,59998E-001	0,00000E+000	8	...........	-32768,00
	363	36,4	4,62856E-001	4,81421E-005	0,00000E+000	4,62998E-001	0,00000E+000	8	...........	-32768,00
	366	36,7	4,65854E-001	4,90972E-005	0,00000E+000	4,65998E-001	0,00000E+000	8	...........	-32768,00
	369	37	4,68860E-001	5,00252E-005	0,00000E+000	4,68998E-001	0,00000E+000	8	...........	-32768,00
	372	37,3	4,71851E-001	5,10192E-005	0,00000E+000	4,71999E-001	0,00000E+000	8	...........	-32768,00
	375	37,6	4,74876E-001	5,19729E-005	0,00000E+000	4,74999E-001	0,00000E+000	8	...........	-32768,00
	378	37,9	4,77879E-001	5,29454E-005	0,00000E+000	4,77999E-001	0,00000E+000	8	...........	-32768,00
	381	38,2	4,80860E-001	5,39255E-005	0,00000E+000	4,80999E-001	0,00000E+000	8	...........	-32768,00
	384	38,5	4,83850E-001	5,49411E-005	0,00000E+000	4,83999E-001	0,00000E+000	8	...........	-32768,00
	387	38,8	4,86863E-001	5,59796E-005	0,00000E+000	4,87000E-001	0,00000E+000	8	...........	-32768,00
	390	39,1	4,89872E-001	5,70325E-005	0,00000E+000	4,90000E-001	0,00000E+000	8	...........	-32768,00
	393	39,4	4,92866E-001	5,81265E-005	0,00000E+000	4,93000E-001	0,00000E+000	8	...........	-32768,00
	396	39,7	4,95848E-001	5,92797E-005	0,00000E+000	4,96000E-001	0,00000E+000	8	...........	-32768,00
	399	40	4,98854E-001	6,04370E-005	0,00000E+000	4,99001E-001	0,00000E+000	8	...........	-32768,00
	402	40,3	5,01872E-001	6,16663E-005	0,00000E+000	5,02001E-001	0,00000E+000	8	...........	-32768,00
	405	40,6	5,04866E-001	6,29165E-005	0,00000E+000	5,05001E-001	0,00000E+000	8	...........	-32768,00
	408	40,9	5,07867E-001	6,42489E-005	0,00000E+000	5,08001E-001	0,00000E+000	8	...........	-32768,00
	411	41,2	5,10852E-001	6,56420E-005	0,00000E+000	5,11002E-001	0,00000E+000	8	...........	-32768,00
	414	41,5	5,13888E-001	6,70815E-005	0,00000E+000	5,14002E-001	0,00000E+000	8	...........	-32768,00
	417	41,8	5,16880E-001	6,85964E-005	0,00000E+000	5,17002E-001	0,00000E+000	8	...........	-32768,00
	420	42,1	5,19883E-001	7,01657E-005	0,00000E+000	5,20002E-001	0,00000E+000	8	...........	-32768,00
	423	42,4	5,22877E-001	7,18199E-005	0,00000E+000	5,23003E-001	0,00000E+000	8	...........	-32768,00
	426	42,7	5,25889E-001	7,35655E-005	0,00000E+000	5,26003E-001	0,00000E+000	8	...........	-32768,00
	429	43	5,28878E-001	7,53883E-005	0,00000E+000	5,29003E-001	0,00000E+000	8	...........	-32768,00
	432	43,3	5,31875E-001	7,73259E-005	0,00000E+000	5,32003E-001	0,00000E+000	8	...........	-32768,00
	435	43,6	5,34882E-001	7,93175E-005	0,00000E+000	5,35004E-001	0,00000E+000	8	...........	-32768,00
	438	43,9	5,37878E-001	8,14189E-005	0,00000E+000	5,38004E-001	0,00000E+000	8	...........	-32768,00
	441	44,2	5,40890E-001	8,36344E-005	0,00000E+000	5,41004E-001	0,00000E+000	8	...........	-32768,00
	444	44,5	5,43884E-001	8,59877E-005	0,00000E+000	5,44004E-001	0,00000E+000	8	...........	-32768,00
	447	44,8	5,46878E-001	8,83946E-005	0,00000E+000	5,47005E-001	0,00000E+000	8	...........	-32768,00
	450	45,1	5,49883E-001	9,09035E-005	0,00000E+000	5,50005E-001	0,00000E+000	9	...........	-32768,00
	453	45,4	5,52886E-001	9,34560E-005	0,00000E+000	5,53005E-001	0,00000E+000	9	...........	-32768,00
	456	45,7	5,55879E-001	9,61054E-005	0,00000E+000	5,56005E-001	0,00000E+000	9	...........	-32768,00
	459	46	5,58880E-001	9,88170E-005	0,00000E+000	5,59005E-001	0,00000E+000	9	...........	-32768,00
	462	46,3	5,61875E-001	1,01517E-004	0,00000E+000	5,62006E-001	0,00000E+000	9	...........	-32768,00
	465	46,6	5,64908E-001	1,04261E-004	0,00000E+000	5,65006E-001	0,00000E+000	9	...........	-32768,00
	468	46,9	5,67901E-001	1,06898E-004	0,00000E+000	5,68006E-001	0,00000E+000	9	...........	-32768,00
	471	47,2	5,70879E-001	1,09418E-004	0,00000E+000	5,70994E-001	0,00000E+000	9	...........	-32768,00
	474	47,5	5,73879E-001	1,12021E-004	0,00000E+000	5,73994E-001	0,00000E+000	9	...........	-32768,00
	477	47,8	5,76870E-001	1,14698E-004	0,00000E+000	5,76994E-001	0,00000E+000	9	...........	-32768,00
	480	48,1	5,79881E-001	1,17676E-004	0,00000E+000	5,79995E-001	0,00000E+000	9	...........	-32768,00
	483	48,4	5,82879E-001	1,20882E-004	0,00000E+000	5,82995E-001	0,00000E+000	9	...........	-32768,00
	486	48,7	5,85877E-001	1,24318E-004	0,00000E+000	5,85995E-001	0,00000E+000	9	...........	-32768,00
	489	49	5,88879E-001	1,27816E-004	0,00000E+000	5,88995E-001	0,00000E+000	9	...........	-32768,00
	492	49,3	5,91896E-001	1,31410E-004	0,00000E+000	5,91996E-001	0,00000E+000	9	...........	-32768,00
	495	49,6	5,94891E-001	1,34852E-004	0,00000E+000	5,94996E-001	0,00000E+000	9	...........	-32768,00
	498	49,9	5,97889E-001	1,37829E-004	0,00000E+000	5,97996E-001	0,00000E+000	9	...........	-32768,00
	501	50,2	6,00882E-001	1,40150E-004	0,00000E+000	6,00996E-001	0,00000E+000	9	...........	-32768,00
	504	50,5	6,03892E-001	1,41495E-004	0,00000E+000	6,03997E-001	0,00000E+000	9	...........	-32768,00
	507	50,8	6,06900E-001	1,41804E-004	0,00000E+000	6,06997E-001	0,00000E+000	9	...........	-32768,00
	510	51,1	6,09889E-001	1,40572E-004	0,00000E+000	6,09997E-001	0,00000E+000	9	...........	-32768,00
	513	51,4	6,12895E-001	1,37792E-004	0,00000E+000	6,12997E-001	0,00000E+000	9	...........	-32768,00
	516	51,7	6,15914E-001	1,33294E-004	0,00000E+000	6,15998E-001	0,00000E+000	9	...........	-32768,00
	519	52	6,18908E-001	1,27275E-004	0,00000E+000	6,18998E-001	0,00000E+000	9	...........	-32768,00
	522	52,3	6,21892E-001	1,20808E-004	0,00000E+000	6,21998E-001	0,00000E+000	9	...........	-32768,00
	525	52,6	6,24889E-001	1,15855E-004	0,00000E+000	6,24998E-001	0,00000E+000	9	...........	-32768,00
	528	52,9	6,27882E-001	1,12733E-004	0,00000E+000	6,27999E-001	0,00000E+000	9	...........	-32768,00
	531	53,2	6,30909E-001	1,11065E-004	0,00000E+000	6,30999E-001	0,00000E+000	9	...........	-32768,00
	534	53,5	6,33911E-001	1,10023E-004	0,00000E+000	6,33999E-001	0,00000E+000	9	...........	-32768,00
	537	53,8	6,36902E-001	1,09058E-004	0,00000E+000	6,36999E-001	0,00000E+000	9	...........	-32768,00
	540	54,1	6,39897E-001	1,08553E-004	0,00000E+000	6,40000E-001	0,00000E+000	9	...........	-32768,00
	543	54,4	6,42915E-001	1,08214E-004	0,00000E+000	6,43000E-001	0,00000E+000	9	...........	-32768,00
	546	54,7	6,45907E-001	1,08274E-004	0,00000E+000	6,46000E-001	0,00000E+000	9	...........	-32768,00
	549	55	6,48916E-001	1,08514E-004	0,00000E+000	6,49000E-001	0,00000E+000	9	...........	-32768,00
	552	55,3	6,51906E-001	1,08825E-004	0,00000E+000	6,52000E-001	0,00000E+000	9	...........	-32768,00
	555	55,6	6,54913E-001	1,09252E-004	0,00000E+000	6,55001E-001	0,00000E+000	9	...........	-32768,00
	558	55,9	6,57901E-001	1,09588E-004	0,00000E+000	6,58001E-001	0,00000E+000	9	...........	-32768,00
	561	56,2	6,60901E-001	1,10020E-004	0,00000E+000	6,61001E-001	0,00000E+000	9	...........	-32768,00
	564	56,5	6,63896E-001	1,10561E-004	0,00000E+000	6,64001E-001	0,00000E+000	9	...........	-32768,00
	567	56,8	6,66915E-001	1,11017E-004	0,00000E+000	6,67002E-001	0,00000E+000	9	...........	-32768,00
	570	57,1	6,69931E-001	1,11665E-004	0,00000E+000	6,70002E-001	0,00000E+000	9	...........	-32768,00
	573	57,4	6,72903E-001	1,12171E-004	0,00000E+000	6,73002E-001	0,00000E+000	9	...........	-32768,00
	576	57,7	6,75908E-001	1,12870E-004	0,00000E+000	6,76002E-001	0,00000E+000	9	...........	-32768,00
	579	58	6,78906E-001	1,13553E-004	0,00000E+000	6,79003E-001	0,00000E+000	9	...........	-32768,00
	582	58,3	6,81919E-001	1,14104E-004	0,00000E+000	6,82003E-001	0,00000E+000	9	...........	-32768,00
	585	58,6	6,84922E-001	1,14690E-004	0,00000E+000	6,85003E-001	0,00000E+000	9	...........	-32768,00
	588	58,9	6,87910E-001	1,15243E-004	0,00000E+000	6,88003E-001	0,00000E+000	9	...........	-32768,00
	591	59,2	6,90921E-001	1,15977E-004	0,00000E+000	6,91004E-001	0,00000E+000	9	...........	-32768,00
	594	59,5	6,93936E-001	1,16595E-004	0,00000E+000	6,94004E-001	0,00000E+000	9	...........	-32768,00
	597	59,8	6,96924E-001	1,17285E-004	0,00000E+000	6,97004E-001	0,00000E+000	9	...........	-32768,00
	600	60,1	6,99934E-001	1,18044E-004	0,00000E+000	7,00004E-001	0,00000E+000	9	...........	-32768,00
	603	60,4	7,02922E-001	1,18707E-004	0,00000E+000	7,03005E-001	0,00000E+000	9	...........	-32768,00
	606	60,7	7,05925E-001	1,19578E-004	0,00000E+000	7,06005E-001	0,00000E+000	9	...........	-32768,00
	609	61	7,08941E-001	1,20194E-004	0,00000E+000	7,09005E-001	0,00000E+000	9	...........	-32768,00
	612	61,3	7,11920E-001	1,20902E-004	0,00000E+000	7,12005E-001	0,00000E+000	9	...........	-32768,00
	615	61,6	7,14919E-001	1,21666E-004	0,00000E+000	7,15006E-001	0,00000E+000	9	...........	-32768,00
	618	61,9	7,17934E-001	1,22303E-004	0,00000E+000	7,18006E-001	0,00000E+000	9	...........	-32768,00
	621	62,2	7,20944E-001	1,23250E-004	0,00000E+000	7,21006E-001	0,00000E+000	9	...........	-32768,00
	624	62,5	7,23943E-001	1,23943E-004	0,00000E+000	7,24006E-001	0,00000E+000	9	...........	-32768,00
	627	62,8	7,26917E-001	1,24778E-004	0,00000E+000	7,26994E-001	0,00000E+000	9	...........	-32768,00
	630	63,1	7,29915E-001	1,25391E-004	0,00000E+000	7,29994E-001	0,00000E+000	9	...........	-32768,00
	633	63,4	7,32922E-001	1,26050E-004	0,00000E+000	7,32994E-001	0,00000E+000	9	...........	-32768,00
	636	63,7	7,35922E-001	1,26863E-004	0,00000E+000	7,35995E-001	0,00000E+000	9	...........	-32768,00
	639	64	7,38930E-001	1,27711E-004	0,00000E+000	7,38995E-001	0,00000E+000	9	...........	-32768,00
	642	64,3	7,41922E-001	1,28382E-004	0,00000E+000	7,41995E-001	0,00000E+000	9	...........	-32768,00
	645	64,6	7,44939E-001	1,29177E-004	0,00000E+000	7,44995E-001	0,00000E+000	9	...........	-32768,00
	648	64,9	7,47947E-001	1,29932E-004	0,00000E+000	7,47996E-001	0,00000E+000	9	...........	-32768,00
	651	65,2	7,50924E-001	1,30696E-004	0,00000E+000	7,50996E-001	0,00000E+000	9	...........	-32768,00
	654	65,5	7,53933E-001	1,31456E-004	0,00000E+000	7,53996E-001	0,00000E+000	9	...........	-32768,00
	657	65,8	7,56960E-001	1,32259E-004	0,00000E+000	7,56996E-001	0,00000E+000	9	...........	-32768,00
	660	66,1	7,59948E-001	1,32961E-004	0,00000E+000	7,59997E-001	0,00000E+000	9	...........	-32768,00
	663	66,4	7,62947E-001	1,33935E-004	0,00000E+000	7,62997E-001	0,00000E+000	9	...........	-32768,00
	666	66,7	7,65941E-001	1,34649E-004	0,00000E+000	7,65997E-001	0,00000E+000	9	...........	-32768,00
	669	67	7,68921E-001	1,35352E-004	0,00000E+000	7,68997E-001	0,00000E+000	9	...........	-32768,00
	672	67,3	7,71946E-001	1,36201E-004	0,00000E+000	7,71998E-001	0,00000E+000	9	...........	-32768,00
	675	67,6	7,74953E-001	1,36980E-004	0,00000E+000	7,74998E-001	0,00000E+000	9	...........	-32768,00
	678	67,9	7,77934E-001	1,37832E-004	0,00000E+000	7,77998E-001	0,00000E+000	9	...........	-32768,00
	681	68,2	7,80943E-001	1,38457E-004	0,00000E+000	7,80998E-001	0,00000E+000	9	...........	-32768,00
	684	68,5	7,83947E-001	1,39089E-004	0,00000E+000	7,83999E-001	0,00000E+000	9	...........	-32768,00
	687	68,8	7,86947E-001	1,39855E-004	0,00000E+000	7,86999E-001	0,00000E+000	9	...........	-32768,00
	690	69,1	7,89947E-001	1,40905E-004	0,00000E+000	7,89999E-001	0,00000E+000	9	...........	-32768,00
	693	69,4	7,92949E-001	1,41463E-004	0,00000E+000	7,92999E-001	0,00000E+000	9	...........	-32768,00
	696	69,7	7,95958E-001	1,41935E-004	0,00000E+000	7,96000E-001	0,00000E+000	9	...........	-32768,00
	699	70	7,98958E-001	1,42487E-004	0,00000E+000	7,99000E-001	0,00000E+000	9	...........	-32768,00
	702	70,3	7,97969E-001	1,41756E-004	0,00000E+000	7,98000E-001	0,00000E+000	9	...........	-32768,00
	705	70,6	7,94969E-001	1,40398E-004	0,00000E+000	7,94999E-001	0,00000E+000	9	...........	-32768,00
	708	70,9	7,91946E-001	1,39265E-004	0,00000E+000	7,91999E-001	0,00000E+000	9	...........	-32768,00
	711	71,2	7,88958E-001	1,38015E-004	0,00000E+000	7,88999E-001	0,00000E+000	9	...........	-32768,00
	714	71,5	7,85955E-001	1,36818E-004	0,00000E+000	7,85999E-001	0,00000E+000	9	...........	-32768,00
	717	71,8	7,82962E-001	1,35277E-004	0,00000E+000	7,82998E-001	0,00000E+000	9	...........	-32768,00
	720	72,1	7,79946E-001	1,34121E-004	0,00000E+000	7,79998E-001	0,00000E+000	9	...........	-32768,00
	723	72,4	7,76933E-001	1,32938E-004	0,00000E+000	7,76998E-001	0,00000E+000	9	...........	-32768,00
	726	72,7	7,73949E-001	1,31859E-004	0,00000E+000	7,73998E-001	0,00000E+000	9	...........	-32768,00
	729	73	7,70964E-001	1,30767E-004	0,00000E+000	7,70998E-001	0,00000E+000	9	...........	-32768,00
	732	73,3	7,67920E-001	1,29704E-004	0,00000E+000	7,67997E-001	0,00000E+000	9	...........	-32768,00
	735	73,6	7,64939E-001	1,28647E-004	0,00000E+000	7,64997E-001	0,00000E+000	9	...........	-32768,00
	738	73,9	7,61946E-001	1,27613E-004	0,00000E+000	7,61997E-001	0,00000E+000	9	...........	-32768,00
	741	74,2	7,58930E-001	1,26652E-004	0,00000E+000	7,58997E-001	0,00000E+000	9	...........	-32768,00
	744	74,5	7,55928E-001	1,25624E-004	0,00000E+000	7,55996E-001	0,00000E+000	9	...........	-32768,00
	747	74,8	7,52929E-001	1,24642E-004	0,00000E+000	7,52996E-001	0,00000E+000	9	...........	-32768,00
	750	75,1	7,49932E-001	1,23682E-004	0,00000E+000	7,49996E-001	0,00000E+000	9	...........	-32768,00
	753	75,4	7,46945E-001	1,22716E-004	0,00000E+000	7,46996E-001	0,00000E+000	9	...........	-32768,00
	756	75,7	7,43951E-001	1,21766E-004	0,00000E+000	7,43995E-001	0,00000E+000	9	...........	-32768,00
	759	76	7,40923E-001	1,20835E-004	0,00000E+000	7,40995E-001	0,00000E+000	9	...........	-32768,00
	762	76,3	7,37931E-001	1,19914E-004	0,00000E+000	7,37995E-001	0,00000E+000	9	...........	-32768,00
	765	76,6	7,34917E-001	1,18973E-004	0,00000E+000	7,34995E-001	0,00000E+000	9	...........	-32768,00
	768	76,9	7,31931E-001	1,18064E-004	0,00000E+000	7,31994E-001	0,00000E+000	9	...........	-32768,00
	771	77,2	7,28922E-001	1,17186E-004	0,00000E+000	7,28994E-001	0,00000E+000	9	...........	-32768,00
	774	77,5	7,25932E-001	1,16263E-004	0,00000E+000	7,25994E-001	0,00000E+000	9	...........	-32768,00
	777	77,8	7,22938E-001	1,15303E-004	0,00000E+000	7,23006E-001	0,00000E+000	9	...........	-32768,00
	780	78,1	7,19942E-001	1,14473E-004	0,00000E+000	7,20006E-001	0,00000E+000	9	...........	-32768,00
	783	78,4	7,16915E-001	1,13524E-004	0,00000E+000	7,17006E-001	0,00000E+000	9	...........	-32768,00
	786	78,7	7,13921E-001	1,12657E-004	0,00000E+000	7,14005E-001	0,00000E+000	9	...........	-32768,00
	789	79	7,10924E-001	1,11824E-004	0,00000E+000	7,11005E-001	0,00000E+000	9	...........	-32768,00
	792	79,3	7,07932E-001	1,10932E-004	0,00000E+000	7,08005E-001	0,00000E+000	9	...........	-32768,00
	795	79,6	7,04903E-001	1,10037E-004	0,00000E+000	7,05005E-001	0,00000E+000	9	...........	-32768,00
	798	79,9	7,01916E-001	1,09201E-004	0,00000E+000	7,02004E-001	0,00000E+000	9	...........	-32768,00
	801	80,2	6,98933E-001	1,08333E-004	0,00000E+000	6,99004E-001	0,00000E+000	9	...........	-32768,00
	804	80,5	6,95929E-001	1,07464E-004	0,00000E+000	6,96004E-001	0,00000E+000	9	...........	-32768,00
	807	80,8	6,92933E-001	1,06630E-004	0,00000E+000	6,93004E-001	0,00000E+000	9	...........	-32768,00
	810	81,1	6,89919E-001	1,05763E-004	0,00000E+000	6,90004E-001	0,00000E+000	9	...........	-32768,00
	813	81,4	6,86912E-001	1,04908E-004	0,00000E+000	6,87003E-001	0,00000E+000	9	...........	-32768,00
	816	81,7	6,83923E-001	1,04047E-004	0,00000E+000	6,84003E-001	0,00000E+000	9	...........	-32768,00
	819	82	6,80931E-001	1,03241E-004	0,00000E+000	6,81003E-001	0,00000E+000	9	...........	-32768,00
	822	82,3	6,77903E-001	1,02427E-004	0,00000E+000	6,78003E-001	0,00000E+000	9	...........	-32768,00
	825	82,6	6,74917E-001	1,01571E-004	0,00000E+000	6,75002E-001	0,00000E+000	9	...........	-32768,00
	828	82,9	6,71913E-001	1,00739E-004	0,00000E+000	6,72002E-001	0,00000E+000	9	...........	-32768,00
	831	83,2	6,68918E-001	9,98873E-005	0,00000E+000	6,69002E-001	0,00000E+000	9	...........	-32768,00
	834	83,5	6,65907E-001	9,90384E-005	0,00000E+000	6,66002E-001	0,00000E+000	9	...........	-32768,00
	837	83,8	6,62905E-001	9,82497E-005	0,00000E+000	6,63001E-001	0,00000E+000	9	...........	-32768,00
	840	84,1	6,59903E-001	9,74145E-005	0,00000E+000	6,60001E-001	0,00000E+000	9	...........	-32768,00
	843	84,4	6,56908E-001	9,65579E-005	0,00000E+000	6,57001E-001	0,00000E+000	9	...........	-32768,00
	846	84,7	6,53928E-001	9,57704E-005	0,00000E+000	6,54001E-001	0,00000E+000	9	...........	-32768,00
	849	85	6,50903E-001	9,49233E-005	0,00000E+000	6,51000E-001	0,00000E+000	9	...........	-32768,00
	852	85,3	6,47914E-001	9,41034E-005	0,00000E+000	6,48000E-001	0,00000E+000	9	...........	-32768,00
	855	85,6	6,44907E-001	9,32988E-005	0,00000E+000	6,45000E-001	0,00000E+000	9	...........	-32768,00
	858	85,9	6,41917E-001	9,24583E-005	0,00000E+000	6,42000E-001	0,00000E+000	9	...........	-32768,00
	861	86,2	6,38903E-001	9,16380E-005	0,00000E+000	6,38999E-001	0,00000E+000	9	...........	-32768,00
	864	86,5	6,35912E-001	9,07956E-005	0,00000E+000	6,35999E-001	0,00000E+000	9	...........	-32768,00
	867	86,8	6,32912E-001	8,99669E-005	0,00000E+000	6,32999E-001	0,00000E+000	9	...........	-32768,00
	870	87,1	6,29908E-001	8,91541E-005	0,00000E+000	6,29999E-001	0,00000E+000	9	...........	-32768,00
	873	87,4	6,26882E-001	8,83321E-005	0,00000E+000	6,26998E-001	0,00000E+000	9	...........	-32768,00
	876	87,7	6,23889E-001	8,75484E-005	0,00000E+000	6,23998E-001	0,00000E+000	9	...........	-32768,00
	879	88	6,20893E-001	8,67291E-005	0,00000E+000	6,20998E-001	0,00000E+000	9	...........	-32768,00
	882	88,3	6,17896E-001	8,59488E-005	0,00000E+000	6,17998E-001	0,00000E+000	9	...........	-32768,00
	885	88,6	6,14879E-001	8,51123E-005	0,00000E+000	6,14998E-001	0,00000E+000	9	...........	-32768,00
	888	88,9	6,11890E-001	8,43291E-005	0,00000E+000	6,11997E-001	0,00000E+000	9	...........	-32768,00
	891	89,2	6,08894E-001	8,34944E-005	0,00000E+000	6,08997E-001	0,00000E+000	9	...........	-32768,00
	894	89,5	6,05897E-001	8,27088E-005	0,00000E+000	6,05997E-001	0,00000E+000	9	...........	-32768,00
	897	89,8	6,02908E-001	8,19014E-005	0,00000E+000	6,02997E-001	0,00000E+000	9	...........	-32768,00
	900	90,1	5,99883E-001	8,10934E-005	0,00000E+000	5,99996E-001	0,00000E+000	9	...........	-32768,00
	903	90,4	5,96884E-001	8,02700E-005	0,00000E+000	5,96996E-001	0,00000E+000	8	...........	-32768,00
	906	90,7	5,93882E-001	7,94904E-005	0,00000E+000	5,93996E-001	0,00000E+000	8	...........	-32768,00
	909	91	5,90889E-001	7,87048E-005	0,00000E+000	5,90996E-001	0,00000E+000	8	...........	-32768,00
	912	91,3	5,87880E-001	7,79311E-005	0,00000E+000	5,87995E-001	0,00000E+000	8	...........	-32768,00
	915	91,6	5,84875E-001	7,71509E-005	0,00000E+000	5,84995E-001	0,00000E+000	8	...........	-32768,00
	918	91,9	5,81879E-001	7,63832E-005	0,00000E+000	5,81995E-001	0,00000E+000	8	...........	-32768,00
	921	92,2	5,78880E-001	7,56245E-005	0,00000E+000	5,78995E-001	0,00000E+000	8	...........	-32768,00
	924	92,5	5,75854E-001	7,48555E-005	0,00000E+000	5,75994E-001	0,00000E+000	8	...........	-32768,00
	927	92,8	5,72868E-001	7,41236E-005	0,00000E+000	5,72994E-001	0,00000E+000	8	...........	-32768,00
	930	93,1	5,69872E-001	7,33616E-005	0,00000E+000	5,69994E-001	0,00000E+000	8	...........	-32768,00
	933	93,4	5,66885E-001	7,26148E-005	0,00000E+000	5,67006E-001	0,00000E+000	8	...........	-32768,00
	936	93,7	5,63884E-001	7,18859E-005	0,00000E+000	5,64006E-001	0,00000E+000	8	...........	-32768,00
	939	94	5,60868E-001	7,11341E-005	0,00000E+000	5,61006E-001	0,00000E+000	8	...........	-32768,00
	942	94,3	5,57880E-001	7,03852E-005	0,00000E+000	5,58005E-001	0,00000E+000	8	...........	-32768,00
	945	94,6	5,54886E-001	6,96304E-005	0,00000E+000	5,55005E-001	0,00000E+000	8	...........	-32768,00
	948	94,9	5,51892E-001	6,89074E-005	0,00000E+000	5,52005E-001	0,00000E+000	8	...........	-32768,00
	951	95,2	5,48874E-001	6,81718E-005	0,00000E+000	5,49005E-001	0,00000E+000	8	...........	-32768,00
	954	95,5	5,45877E-001	6,74488E-005	0,00000E+000	5,46004E-001	0,00000E+000	8	...........	-32768,00
	957	95,8	5,42884E-001	6,66975E-005	0,00000E+000	5,43004E-001	0,00000E+000	8	...........	-32768,00
	960	96,1	5,39886E-001	6,59729E-005	0,00000E+000	5,40004E-001	0,00000E+000	8	...........	-32768,00
	963	96,4	5,36876E-001	6,52230E-005	0,00000E+000	5,37004E-001	0,00000E+000	8	...........	-32768,00
	966	96,7	5,33879E-001	6,44886E-005	0,00000E+000	5,34003E-001	0,00000E+000	8	...........	-32768,00
	969	97	5,30870E-001	6,37407E-005	0,00000E+000	5,31003E-001	0,00000E+000	8	...........	-32768,00
	972	97,3	5,27880E-001	6,30070E-005	0,00000E+000	5,28003E-001	0,00000E+000	8	...........	-32768,00
	975	97,6	5,24859E-001	6,22609E-005	0,00000E+000	5,25003E-001	0,00000E+000	8	...........	-32768,00
	978	97,9	5,21866E-001	6,15398E-005	0,00000E+000	5,22003E-001	0,00000E+000	8	...........	-32768,00
	981	98,2	5,18861E-001	6,07946E-005	0,00000E+000	5,19002E-001	0,00000E+000	8	...........	-32768,00
	984	98,5	5,15872E-001	6,00623E-005	0,00000E+000	5,16002E-001	0,00000E+000	8	...........	-32768,00
	987	98,8	5,12876E-001	5,93317E-005	0,00000E+000	5,13002E-001	0,00000E+000	8	...........	-32768,00
	990	99,1	5,09861E-001	5,86031E-005	0,00000E+000	5,10002E-001	0,00000E+000	8	...........	-32768,00
	993	99,4	5,06861E-001	5,78617E-005	0,00000E+000	5,07001E-001	0,00000E+000	8	...........	-32768,00
	996	99,7	5,03866E-001	5,71330E-005	0,00000E+000	5,04001E-001	0,00000E+000	8	...........	-32768,00
	999	100	5,00874E-001	5,63743E-005	0,00000E+000	5,01001E-001	0,00000E+000	8	...........	-32768,00
	1002	100,3	4,97846E-001	5,56418E-005	0,00000E+000	4,98001E-001	0,00000E+000	8	...........	-32768,00
	1005	100,6	4,94861E-001	5,48930E-005	0,00000E+000	4,95000E-001	0,00000E+000	8	...........	-32768,00
	1008	100,9	4,91867E-001	5,41561E-005	0,00000E+000	4,92000E-001	0,00000E+000	8	...........	-32768,00
	1011	101,2	4,88873E-001	5,33986E-005	0,00000E+000	4,89000E-001	0,00000E+000	8	...........	-32768,00
	1014	101,5	4,85849E-001	5,26749E-005	0,00000E+000	4,86000E-001	0,00000E+000	8	...........	-32768,00
	1017	101,8	4,82851E-001	5,19170E-005	0,00000E+000	4,82999E-001	0,00000E+000	8	...........	-32768,00
	1020	102,1	4,79867E-001	5,11672E-005	0,00000E+000	4,79999E-001	0,00000E+000	8	...........	-32768,00
	1023	102,4	4,76859E-001	5,04097E-005	0,00000E+000	4,76999E-001	0,00000E+000	8	...........	-32768,00
	1026	102,7	4,73850E-001	4,96376E-005	0,00000E+000	4,73999E-001	0,00000E+000	8	...........	-32768,00
	1029	103	4,70844E-001	4,89003E-005	0,00000E+000	4,70998E-001	0,00000E+000	8	...........	-32768,00
	1032	103,3	4,67847E-001	4,81353E-005	0,00000E+000	4,67998E-001	0,00000E+000	8	...........	-32768,00
	1035	103,6	4,64852E-001	4,72956E-005	0,00000E+000	4,64998E-001	0,00000E+000	8	...........	-32768,00
	1038	103,9	4,61863E-001	4,63261E-005	0,00000E+000	4,61998E-001	0,00000E+000	8	...........	-32768,00
	1041	104,2	4,58842E-001	4,51033E-005	0,00000E+000	4,58997E-001	0,00000E+000	8	...........	-32768,00
	1044	104,5	4,55853E-001	4,34143E-005	0,00000E+000	4,55997E-001	0,00000E+000	8	...........	-32768,00
	1047	104,8	4,52847E-001	4,12150E-005	0,00000E+000	4,52997E-001	0,00000E+000	8	...........	-32768,00
	1050	105,1	4,49857E-001	3,84356E-005	0,00000E+000	4,49997E-001	0,00000E+000	8	...........	-32768,00
	1053	105,4	4,46847E-001	3,51122E-005	0,00000E+000	4,46997E-001	0,00000E+000	8	...........	-32768,00
	1056	105,7	4,43846E-001	3,13998E-005	0,00000E+000	4,43996E-001	0,00000E+000	8	...........	-32768,00
	1059	106	4,40871E-001	2,74696E-005	0,00000E+000	4,40996E-001	0,00000E+000	8	...........	-32768,00
	1062	106,3	4,37862E-001	2,34178E-005	0,00000E+000	4,37996E-001	0,00000E+000	8	...........	-32768,00
	1065	106,6	4,34844E-001	1,94098E-005	0,00000E+000	4,34996E-001	0,00000E+000	8	...........	-32768,00
	1068	106,9	4,31844E-001	1,55751E-005	0,00000E+000	4,31995E-001	0,00000E+000	8	...........	-32768,00
	1071	107,2	4,28850E-001	1,18979E-005	0,00000E+000	4,28995E-001	0,00000E+000	8	...........	-32768,00
	1074	107,5	4,25852E-001	8,34670E-006	0,00000E+000	4,25995E-001	0,00000E+000	8	...........	-32768,00
	1077	107,8	4,22832E-001	5,24938E-006	0,00000E+000	4,22995E-001	0,00000E+000	7	...........	-32768,00
	1080	108,1	4,19840E-001	2,40563E-006	0,00000E+000	4,19994E-001	0,00000E+000	7	...........	-32768,00
	1083	108,4	4,16834E-001	-1,84513E-007	0,00000E+000	4,16994E-001	0,00000E+000	7	...........	-32768,00
	1086	108,7	4,13840E-001	-2,48141E-006	0,00000E+000	4,13994E-001	0,00000E+000	7	...........	-32768,00
	1089	109	4,10866E-001	-4,53168E-006	0,00000E+000	4,11006E-001	0,00000E+000	7	...........	-32768,00
	1092	109,3	4,07867E-001	-6,25426E-006	0,00000E+000	4,08006E-001	0,00000E+000	7	...........	-32768,00
	1095	109,6	4,04863E-001	-7,80591E-006	0,00000E+000	4,05006E-001	0,00000E+000	7	...........	-32768,00
	1098	109,9	4,01882E-001	-9,16813E-006	0,00000E+000	4,02005E-001	0,00000E+000	7	...........	-32768,00
	1101	110,2	3,98861E-001	-1,03283E-005	0,00000E+000	3,99005E-001	0,00000E+000	8	...........	-32768,00
	1104	110,5	3,95854E-001	-1,14334E-005	0,00000E+000	3,96005E-001	0,00000E+000	8	...........	-32768,00
	1107	110,8	3,92869E-001	-1,21974E-005	0,00000E+000	3,93005E-001	0,00000E+000	8	...........	-32768,00
	1110	111,1	3,89864E-001	-1,27344E-005	0,00000E+000	3,90004E-001	0,00000E+000	8	...........	-32768,00
	1113	111,4	3,86874E-001	-1,31893E-005	0,00000E+000	3,87004E-001	0,00000E+000	8	...........	-32768,00
	1116	111,7	3,83851E-001	-1,34467E-005	0,00000E+000	3,84004E-001	0,00000E+000	8	...........	-32768,00
	1119	112	3,80858E-001	-1,35893E-005	0,00000E+000	3,81004E-001	0,00000E+000	8	...........	-32768,00
	1122	112,3	3,77870E-001	-1,36059E-005	0,00000E+000	3,78003E-001	0,00000E+000	8	...........	-32768,00
	1125	112,6	3,74866E-001	-1,35538E-005	0,00000E+000	3,75003E-001	0,00000E+000	8	...........	-32768,00
	1128	112,9	3,71841E-001	-1,35054E-005	0,00000E+000	3,72003E-001	0,00000E+000	8	...........	-32768,00
	1131	113,2	3,68854E-001	-1,32806E-005	0,00000E+000	3,69003E-001	0,00000E+000	8	...........	-32768,00
	1134	113,5	3,65851E-001	-1,31070E-005	0,00000E+000	3,66003E-001	0,00000E+000	8	...........	-32768,00
	1137	113,8	3,62861E-001	-1,29491E-005	0,00000E+000	3,63002E-001	0,00000E+000	8	...........	-32768,00
	1140	114,1	3,59863E-001	-1,27216E-005	0,00000E+000	3,60002E-001	0,00000E+000	8	...........	-32768,00
	1143	114,4	3,56837E-001	-1,25826E-005	0,00000E+000	3,57002E-001	0,00000E+000	8	...........	-32768,00
	1146	114,7	3,53846E-001	-1,23936E-005	0,00000E+000	3,54002E-001	0,00000E+000	8	...........	-32768,00
	1149	115	3,50848E-001	-1,22291E-005	0,00000E+000	3,51001E-001	0,00000E+000	8	...........	-32768,00
	1152	115,3	3,47850E-001	-1,21832E-005	0,00000E+000	3,48001E-001	0,00000E+000	8	...........	-32768,00
	1155	115,6	3,44846E-001	-1,20785E-005	0,00000E+000	3,45001E-001	0,00000E+000	8	...........	-32768,00
	1158	115,9	3,41850E-001	-1,20743E-005	0,00000E+000	3,42001E-001	0,00000E+000	8	...........	-32768,00
	1161	116,2	3,38847E-001	-1,21019E-005	0,00000E+000	3,39000E-001	0,00000E+000	8	...........	-32768,00
	1164	116,5	3,35855E-001	-1,21092E-005	0,00000E+000	3,36000E-001	0,00000E+000	8	...........	-32768,00
	1167	116,8	3,32851E-001	-1,21724E-005	0,00000E+000	3,33000E-001	0,00000E+000	8	...........	-32768,00
	1170	117,1	3,29835E-001	-1,22877E-005	0,00000E+000	3,30000E-001	0,00000E+000	8	...........	-32768,00
	1173	117,4	3,26845E-001	-1,23763E-005	0,00000E+000	3,26999E-001	0,00000E+000	8	...........	-32768,00
	1176	117,7	3,23856E-001	-1,25556E-005	0,00000E+000	3,23999E-001	0,00000E+000	8	...........	-32768,00
	1179	118	3,20859E-001	-1,26989E-005	0,00000E+000	3,20999E-001	0,00000E+000	8	...........	-32768,00
	1182	118,3	3,17847E-001	-1,28731E-005	0,00000E+000	3,17999E-001	0,00000E+000	8	...........	-32768,00
	1185	118,6	3,14840E-001	-1,31413E-005	0,00000E+000	3,14998E-001	0,00000E+000	8	...........	-32768,00
	1188	118,9	3,11845E-001	-1,34004E-005	0,00000E+000	3,11998E-001	0,00000E+000	8	...........	-32768,00
	1191	119,2	3,08842E-001	-1,37095E-005	0,00000E+000	3,08998E-001	0,00000E+000	8	...........	-32768,00
	1194	119,5	3,05830E-001	-1,40093E-005	0,00000E+000	3,05998E-001	0,00000E+000	8	...........	-32768,00
	1197	119,8	3,02842E-001	-1,43452E-005	0,00000E+000	3,02997E-001	0,00000E+000	8	...........	-32768,00
	1200	120,1	2,99825E-001	-1,47982E-005	0,00000E+000	2,99997E-001	0,00000E+000	8	...........	-32768,00
	1203	120,4	2,96842E-001	-1,50832E-005	0,00000E+000	2,96997E-001	0,00000E+000	8	...........	-32768,00
	1206	120,7	2,93816E-001	-1,53902E-005	0,00000E+000	2,93997E-001	0,00000E+000	8	...........	-32768,00
	1209	121	2,90823E-001	-1,57567E-005	0,00000E+000	2,90996E-001	0,00000E+000	8	...........	-32768,00
	1212	121,3	2,87844E-001	-1,61997E-005	0,00000E+000	2,87996E-001	0,00000E+000	8	...........	-32768,00
	1215	121,6	2,84838E-001	-1,65818E-005	0,00000E+000	2,84996E-001	0,00000E+000	8	...........	-32768,00
	1218	121,9	2,81837E-001	-1,70022E-005	0,00000E+000	2,81996E-001	0,00000E+000	8	...........	-32768,00
	1221	122,2	2,78834E-001	-1,74017E-005	0,00000E+000	2,78996E-001	0,00000E+000	8	...........	-32768,00
	1224	122,5	2,75832E-001	-1,78169E-005	0,00000E+000	2,75995E-001	0,00000E+000	8	...........	-32768,00
	1227	122,8	2,72836E-001	-1,82198E-005	0,00000E+000	2,72995E-001	0,00000E+000	8	...........	-32768,00
	1230	123,1	2,69847E-001	-1,86442E-005	0,00000E+000	2,69995E-001	0,00000E+000	8	...........	-32768,00
	1233	123,4	2,66817E-001	-1,91224E-005	0,00000E+000	2,66995E-001	0,00000E+000	8	...........	-32768,00
	1236	123,7	2,63834E-001	-1,96031E-005	0,00000E+000	2,63994E-001	0,00000E+000	8	...........	-32768,00
	1239	124	2,60843E-001	-2,00775E-005	0,00000E+000	2,60994E-001	0,00000E+000	8	...........	-32768,00
	1242	124,3	2,57842E-001	-2,05721E-005	0,00000E+000	2,57994E-001	0,00000E+000	8	...........	-32768,00
	1245	124,6	2,54829E-001	-2,11231E-005	0,00000E+000	2,55006E-001	0,00000E+000	8	...........	-32768,00
	1248	124,9	2,51832E-001	-2,15355E-005	0,00000E+000	2,52006E-001	0,00000E+000	8	...........	-32768,00
	1251	125,2	2,48840E-001	-2,20313E-005	0,00000E+000	2,49006E-001	0,00000E+000	8	...........	-32768,00
	1254	125,5	2,45849E-001	-2,24921E-005	0,00000E+000	2,46005E-001	0,00000E+000	8	...........	-32768,00
	1257	125,8	2,42816E-001	-2,29496E-005	0,00000E+000	2,43005E-001	0,00000E+000	8	...........	-32768,00
	1260	126,1	2,39831E-001	-2,35468E-005	0,00000E+000	2,40005E-001	0,00000E+000	8	...........	-32768,00
	1263	126,4	2,36832E-001	-2,42060E-005	0,00000E+000	2,37005E-001	0,00000E+000	8	...........	-32768,00
	1266	126,7	2,33834E-001	-2,48236E-005	0,00000E+000	2,34004E-001	0,00000E+000	8	...........	-32768,00
	1269	127	2,30831E-001	-2,55014E-005	0,00000E+000	2,31004E-001	0,00000E+000	8	...........	-32768,00
	1272	127,3	2,27832E-001	-2,61998E-005	0,00000E+000	2,28004E-001	0,00000E+000	8	...........	-32768,00
	1275	127,6	2,24828E-001	-2,66670E-005	0,00000E+000	2,25004E-001	0,00000E+000	8	...........	-32768,00
	1278	127,9	2,21837E-001	-2,73209E-005	0,00000E+000	2,22003E-001	0,00000E+000	8	...........	-32768,00
	1281	128,2	2,18846E-001	-2,77276E-005	0,00000E+000	2,19003E-001	0,00000E+000	8	...........	-32768,00
	1284	128,5	2,15824E-001	-2,84721E-005	0,00000E+000	2,16003E-001	0,00000E+000	8	...........	-32768,00
	1287	128,8	2,12826E-001	-2,90154E-005	0,00000E+000	2,13003E-001	0,00000E+000	8	...........	-32768,00
	1290	129,1	2,09832E-001	-2,94819E-005	0,00000E+000	2,10003E-001	0,00000E+000	8	...........	-32768,00
	1293	129,4	2,06834E-001	-2,99355E-005	0,00000E+000	2,07002E-001	0,00000E+000	8	...........	-32768,00
	1296	129,7	2,03820E-001	-3,05425E-005	0,00000E+000	2,04002E-001	0,00000E+000	8	...........	-32768,00
	1299	130	2,00827E-001	-3,10234E-005	0,00000E+000	2,01002E-001	0,00000E+000	8	...........	-32768,00
	1302	130,3	1,97833E-001	-3,15587E-005	0,00000E+000	1,98002E-001	0,00000E+000	8	...........	-32768,00
	1305	130,6	1,94827E-001	-3,21337E-005	0,00000E+000	1,95001E-001	0,00000E+000	8	...........	-32768,00
	1308	130,9	1,91825E-001	-3,26845E-005	0,00000E+000	1,92001E-001	0,00000E+000	8	...........	-32768,00
	1311	131,2	1,88823E-001	-3,32602E-005	0,00000E+000	1,89001E-001	0,00000E+000	8	...........	-32768,00
	1314	131,5	1,85835E-001	-3,38047E-005	0,00000E+000	1,86001E-001	0,00000E+000	8	...........	-32768,00
	1317	131,8	1,82837E-001	-3,44929E-005	0,00000E+000	1,83000E-001	0,00000E+000	8	...........	-32768,00
	1320	132,1	1,79838E-001	-3,51148E-005	0,00000E+000	1,80000E-001	0,00000E+000	8	...........	-32768,00
	1323	132,4	1,76826E-001	-3,58335E-005	0,00000E+000	1,77000E-001	0,00000E+000	8	...........	-32768,00
	1326	132,7	1,73830E-001	-3,64659E-005	0,00000E+000	1,74000E-001	0,00000E+000	8	...........	-32768,00
	1329	133	1,70835E-001	-3,72631E-005	0,00000E+000	1,70999E-001	0,00000E+000	8	...........	-32768,00
	1332	133,3	1,67847E-001	-3,79222E-005	0,00000E+000	1,67999E-001	0,00000E+000	8	...........	-32768,00
	1335	133,6	1,64830E-001	-3,86247E-005	0,00000E+000	1,64999E-001	0,00000E+000	8	...........	-32768,00
	1338	133,9	1,61820E-001	-3,93891E-005	0,00000E+000	1,61999E-001	0,00000E+000	8	...........	-32768,00
	1341	134,2	1,58822E-001	-4,01092E-005	0,00000E+000	1,58998E-001	0,00000E+000	8	...........	-32768,00
	1344	134,5	1,55832E-001	-4,07789E-005	0,00000E+000	1,55998E-001	0,00000E+000	8	...........	-32768,00
	1347	134,8	1,52810E-001	-4,15023E-005	0,00000E+000	1,52998E-001	0,00000E+000	8	...........	-32768,00
	1350	135,1	1,49820E-001	-4,22486E-005	0,00000E+000	1,49998E-001	0,00000E+000	8	...........	-32768,00
	1353	135,4	1,46819E-001	-4,29330E-005	0,00000E+000	1,46997E-001	0,00000E+000	8	...........	-32768,00
	1356	135,7	1,43828E-001	-4,36211E-005	0,00000E+000	1,43997E-001	0,00000E+000	8	...........	-32768,00
	1359	136	1,40813E-001	-4,43048E-005	0,00000E+000	1,40997E-001	0,00000E+000	8	...........	-32768,00
	1362	136,3	1,37806E-001	-4,50070E-005	0,00000E+000	1,37997E-001	0,00000E+000	8	...........	-32768,00
	1365	136,6	1,34818E-001	-4,56679E-005	0,00000E+000	1,34997E-001	0,00000E+000	8	...........	-32768,00
	1368	136,9	1,31821E-001	-4,63564E-005	0,00000E+000	1,31996E-001	0,00000E+000	8	...........	-32768,00
	1371	137,2	1,28843E-001	-4,70563E-005	0,00000E+000	1,28996E-001	0,00000E+000	8	...........	-32768,00
	1374	137,5	1,25818E-001	-4,77776E-005	0,00000E+000	1,25996E-001	0,00000E+000	8	...........	-32768,00
	1377	137,8	1,22823E-001	-4,84248E-005	0,00000E+000	1,22996E-001	0,00000E+000	8	...........	-32768,00
	1380	138,1	1,19827E-001	-4,90916E-005	0,00000E+000	1,19995E-001	0,00000E+000	8	...........	-32768,00
	1383	138,4	1,16842E-001	-4,97616E-005	0,00000E+000	1,16995E-001	0,00000E+000	8	...........	-32768,00
	1386	138,7	1,13797E-001	-5,04905E-005	0,00000E+000	1,13995E-001	0,00000E+000	8	...........	-32768,00
	1389	139	1,10808E-001	-5,10786E-005	0,00000E+000	1,10995E-001	0,00000E+000	8	...........	-32768,00
	1392	139,3	1,07808E-001	-5,17930E-005	0,00000E+000	1,07994E-001	0,00000E+000	8	...........	-32768,00
	1395	139,6	1,04815E-001	-5,25123E-005	0,00000E+000	1,04994E-001	0,00000E+000	8	...........	-32768,00
	1398	139,9	1,01822E-001	-5,31032E-005	0,00000E+000	1,01994E-001	0,00000E+000	8	...........	-32768,00
	1400	140,1	9,98230E-002	-5,37006E-005	0,00000E+000	1,00006E-001	0,00000E+000	8	...........	-32768,00