File: HOPG_cv/5mM/AgNO3_HOPG_5mM_100mv_1_cv.DTA
EXPLAIN
TAG	CV
TITLE	LABEL	Cyclic Voltammetry	Test &Identifier
DATE	LABEL	30/4/2022	Date
TIME	LABEL	14:19:18	Time
NOTES	NOTES	2	&Notes...
	30/04/22 , 5mM  AgNO3

PSTAT	PSTAT	IFC1000-09004	Potentiostat
VINIT	POTEN	1,00000E-001	F	Initial &E (V)
VLIMIT1	POTEN	1,00000E-001	F	Scan Limit &1 (V)
VLIMIT2	POTEN	8,00000E-001	F	Scan Limit &2 (V)
VFINAL	POTEN	1,00000E-001	F	Final &E (V)
SCANRATE	QUANT	9,99998E+001	&Scan Rate (mV/s)
STEPSIZE	QUANT	1,00000E+000	St&ep Size (mV)
CYCLES	IQUANT	1	C&ycles (#)
IMODE	SELECTOR	0	I/E Range &Mode
IRANGE	QUANT	1,00000E-005	&Max Current (mA)
AREA	QUANT	1,00000E+000	Electrode &Area (cm^2)
ELECTRODETYPE	SELECTOR	0	Electrode Type
STRIPPING	TOGGLE	F	Used for Stripping
POLARITY	TOGGLE	F	Signal Polarity
CONDIT	TWOPARAM	F	1,50000E+001	0,00000E+000	Conditionin&g	Time(s)	E(V)
DELAY	TWOPARAM	F	3,00000E+001	0,00000E+000	Init. De&lay	Time(s)	Stab.(mV/s)
EQDELAY	QUANT	1,00000E+001	Equil. &Time (s)
IRCOMP	SELECTOR	0	IRCom&p
PFCOR	QUANT	5,00000E+001	PF Corr. (ohm)
SAMPLINGMODE	SELECTOR	1	Sampling &Mode
EOC	QUANT	0	Open Circuit (V)
PSTATMODEL	IQUANT	48	Pstat Model
PSTATSECTION	LABEL	IFC1000-09004	Pstat Section
PSTATSERIALNO	LABEL	09004	Pstat Serial Number
CTRLMODE	IQUANT	1	Control Mode
ELECTROMETER	IQUANT	0	RE=0 or CS=1
IESTAB	IQUANT	2	I/E Stability
CASPEED	IQUANT	4	Control Amp Speed
CONVENTION	IQUANT	1	Current Convention
ICHRANGE	IQUANT	2	Ich Range
ICHRANGEMODE	TOGGLE	F	Ich Auto Range
ICHOFFSETENABLE	TOGGLE	F	Ich Offset Enable
ICHOFFSET	QUANT	0	Ich Offset (V)
ICHFILTER	IQUANT	3	Ich Filter
VCHRANGE	IQUANT	2	Vch Range
VCHRANGEMODE	TOGGLE	F	Vch Auto Range
VCHOFFSETENABLE	TOGGLE	F	Vch Offset Enable
VCHOFFSET	QUANT	0	Vch Offset (V)
VCHFILTER	IQUANT	3	Vch Filter
IERANGELOWERLIMIT	IQUANT	4	I/E Range Lower Limit
IERANGEMODE	TOGGLE	T	I/E AutoRange
IERANGE	IQUANT	5	I/E Range
ACHSELECT	IQUANT	0	Ach Select
ACHRANGE	IQUANT	2	Ach Range
ACHOFFSETENABLE	TOGGLE	F	Ach Offset Enable
ACHOFFSET	QUANT	0	Ach Offset (V)
ACHFILTER	IQUANT	1	Ach Filter
CABLEID	IQUANT	14	Cable ID
DCCALDATE	LABEL	3/18/2022	DC Calibration Date
ACCALDATE	LABEL	3/10/2016	AC Calibration Date
FRAMEWORKVERSION	QUANT	7,05	Framework Version
INSTRUMENTVERSION	LABEL	4.21	Instrument Version
CURVE1	TABLE
	Pt	T	Vf	Im	Vu	Sig	Ach	IERange	Over	Temp
	#	s	V vs. Ref.	A	V	V	V	#	bits	deg C
	0	0,01	9,98536E-002	-5,11054E-005	0,00000E+000	1,00006E-001	0,00000E+000	8	...........	-32768,00
	3	0,04	1,02840E-001	-4,81945E-005	0,00000E+000	1,02994E-001	0,00000E+000	8	...........	-32768,00
	6	0,07	1,05843E-001	-4,63805E-005	0,00000E+000	1,05994E-001	0,00000E+000	8	...........	-32768,00
	9	0,1	1,08843E-001	-4,49493E-005	0,00000E+000	1,08994E-001	0,00000E+000	8	...........	-32768,00
	12	0,13	1,11839E-001	-4,36360E-005	0,00000E+000	1,11995E-001	0,00000E+000	8	...........	-32768,00
	15	0,16	1,14833E-001	-4,23624E-005	0,00000E+000	1,14995E-001	0,00000E+000	8	...........	-32768,00
	18	0,19	1,17861E-001	-4,11950E-005	0,00000E+000	1,17995E-001	0,00000E+000	8	...........	-32768,00
	21	0,22	1,20853E-001	-3,99736E-005	0,00000E+000	1,20995E-001	0,00000E+000	8	...........	-32768,00
	24	0,25	1,23840E-001	-3,89173E-005	0,00000E+000	1,23996E-001	0,00000E+000	8	...........	-32768,00
	27	0,28	1,26840E-001	-3,79071E-005	0,00000E+000	1,26996E-001	0,00000E+000	8	...........	-32768,00
	30	0,31	1,29848E-001	-3,69697E-005	0,00000E+000	1,29996E-001	0,00000E+000	8	...........	-32768,00
	33	0,34	1,32843E-001	-3,60123E-005	0,00000E+000	1,32996E-001	0,00000E+000	8	...........	-32768,00
	36	0,37	1,35851E-001	-3,50593E-005	0,00000E+000	1,35997E-001	0,00000E+000	8	...........	-32768,00
	39	0,4	1,38850E-001	-3,41867E-005	0,00000E+000	1,38997E-001	0,00000E+000	8	...........	-32768,00
	42	0,43	1,41862E-001	-3,33723E-005	0,00000E+000	1,41997E-001	0,00000E+000	8	...........	-32768,00
	45	0,46	1,44846E-001	-3,25833E-005	0,00000E+000	1,44997E-001	0,00000E+000	8	...........	-32768,00
	48	0,49	1,47855E-001	-3,17834E-005	0,00000E+000	1,47998E-001	0,00000E+000	8	...........	-32768,00
	51	0,52	1,50838E-001	-3,09714E-005	0,00000E+000	1,50998E-001	0,00000E+000	8	...........	-32768,00
	54	0,55	1,53844E-001	-3,02572E-005	0,00000E+000	1,53998E-001	0,00000E+000	8	...........	-32768,00
	57	0,58	1,56860E-001	-2,95735E-005	0,00000E+000	1,56998E-001	0,00000E+000	8	...........	-32768,00
	60	0,61	1,59855E-001	-2,88420E-005	0,00000E+000	1,59999E-001	0,00000E+000	8	...........	-32768,00
	63	0,64	1,62857E-001	-2,81614E-005	0,00000E+000	1,62999E-001	0,00000E+000	8	...........	-32768,00
	66	0,67	1,65845E-001	-2,74728E-005	0,00000E+000	1,65999E-001	0,00000E+000	8	...........	-32768,00
	69	0,7	1,68880E-001	-2,67967E-005	0,00000E+000	1,68999E-001	0,00000E+000	8	...........	-32768,00
	72	0,73	1,71865E-001	-2,61679E-005	0,00000E+000	1,71999E-001	0,00000E+000	8	...........	-32768,00
	75	0,76	1,74844E-001	-2,55668E-005	0,00000E+000	1,75000E-001	0,00000E+000	8	...........	-32768,00
	78	0,79	1,77853E-001	-2,49574E-005	0,00000E+000	1,78000E-001	0,00000E+000	8	...........	-32768,00
	81	0,82	1,80879E-001	-2,43329E-005	0,00000E+000	1,81000E-001	0,00000E+000	8	...........	-32768,00
	84	0,85	1,83875E-001	-2,37817E-005	0,00000E+000	1,84000E-001	0,00000E+000	8	...........	-32768,00
	87	0,88	1,86871E-001	-2,31891E-005	0,00000E+000	1,87001E-001	0,00000E+000	8	...........	-32768,00
	90	0,91	1,89860E-001	-2,26510E-005	0,00000E+000	1,90001E-001	0,00000E+000	8	...........	-32768,00
	93	0,94	1,92870E-001	-2,21041E-005	0,00000E+000	1,93001E-001	0,00000E+000	8	...........	-32768,00
	96	0,97	1,95879E-001	-2,15054E-005	0,00000E+000	1,96001E-001	0,00000E+000	8	...........	-32768,00
	99	1	1,98864E-001	-2,09487E-005	0,00000E+000	1,99002E-001	0,00000E+000	8	...........	-32768,00
	102	1,03	2,01855E-001	-2,04185E-005	0,00000E+000	2,02002E-001	0,00000E+000	8	...........	-32768,00
	105	1,06	2,04854E-001	-1,98802E-005	0,00000E+000	2,05002E-001	0,00000E+000	8	...........	-32768,00
	108	1,09	2,07869E-001	-1,93841E-005	0,00000E+000	2,08002E-001	0,00000E+000	8	...........	-32768,00
	111	1,12	2,10847E-001	-1,88248E-005	0,00000E+000	2,11003E-001	0,00000E+000	8	...........	-32768,00
	114	1,15	2,13858E-001	-1,83170E-005	0,00000E+000	2,14003E-001	0,00000E+000	8	...........	-32768,00
	117	1,18	2,16857E-001	-1,78189E-005	0,00000E+000	2,17003E-001	0,00000E+000	8	...........	-32768,00
	120	1,21	2,19867E-001	-1,73103E-005	0,00000E+000	2,20003E-001	0,00000E+000	8	...........	-32768,00
	123	1,24	2,22871E-001	-1,67932E-005	0,00000E+000	2,23004E-001	0,00000E+000	8	...........	-32768,00
	126	1,27	2,25862E-001	-1,62438E-005	0,00000E+000	2,26004E-001	0,00000E+000	8	...........	-32768,00
	129	1,3	2,28848E-001	-1,57752E-005	0,00000E+000	2,29004E-001	0,00000E+000	8	...........	-32768,00
	132	1,33	2,31877E-001	-1,52867E-005	0,00000E+000	2,32004E-001	0,00000E+000	8	...........	-32768,00
	135	1,36	2,34881E-001	-1,48044E-005	0,00000E+000	2,35005E-001	0,00000E+000	8	...........	-32768,00
	138	1,39	2,37865E-001	-1,42984E-005	0,00000E+000	2,38005E-001	0,00000E+000	8	...........	-32768,00
	141	1,42	2,40870E-001	-1,37584E-005	0,00000E+000	2,41005E-001	0,00000E+000	8	...........	-32768,00
	144	1,45	2,43884E-001	-1,32914E-005	0,00000E+000	2,44005E-001	0,00000E+000	8	...........	-32768,00
	147	1,48	2,46857E-001	-1,28141E-005	0,00000E+000	2,47005E-001	0,00000E+000	8	...........	-32768,00
	150	1,51	2,49862E-001	-1,23278E-005	0,00000E+000	2,50006E-001	0,00000E+000	8	...........	-32768,00
	153	1,54	2,52854E-001	-1,18529E-005	0,00000E+000	2,53006E-001	0,00000E+000	8	...........	-32768,00
	156	1,57	2,55855E-001	-1,13446E-005	0,00000E+000	2,56006E-001	0,00000E+000	8	...........	-32768,00
	159	1,6	2,58861E-001	-1,08882E-005	0,00000E+000	2,58994E-001	0,00000E+000	8	...........	-32768,00
	162	1,63	2,61862E-001	-1,04202E-005	0,00000E+000	2,61994E-001	0,00000E+000	8	...........	-32768,00
	165	1,66	2,64862E-001	-9,93801E-006	0,00000E+000	2,64994E-001	0,00000E+000	8	...........	-32768,00
	168	1,69	2,67852E-001	-9,46373E-006	0,00000E+000	2,67995E-001	0,00000E+000	8	...........	-32768,00
	171	1,72	2,70851E-001	-8,96772E-006	0,00000E+000	2,70995E-001	0,00000E+000	8	...........	-32768,00
	174	1,75	2,73850E-001	-8,48938E-006	0,00000E+000	2,73995E-001	0,00000E+000	8	...........	-32768,00
	177	1,78	2,76842E-001	-8,02396E-006	0,00000E+000	2,76995E-001	0,00000E+000	8	...........	-32768,00
	180	1,81	2,79847E-001	-7,55309E-006	0,00000E+000	2,79996E-001	0,00000E+000	8	...........	-32768,00
	183	1,84	2,82866E-001	-7,05492E-006	0,00000E+000	2,82996E-001	0,00000E+000	8	...........	-32768,00
	186	1,87	2,85864E-001	-6,55571E-006	0,00000E+000	2,85996E-001	0,00000E+000	8	...........	-32768,00
	189	1,9	2,88844E-001	-6,07166E-006	0,00000E+000	2,88996E-001	0,00000E+000	8	...........	-32768,00
	192	1,93	2,91847E-001	-5,61239E-006	0,00000E+000	2,91997E-001	0,00000E+000	8	...........	-32768,00
	195	1,96	2,94841E-001	-5,11000E-006	0,00000E+000	2,94997E-001	0,00000E+000	8	...........	-32768,00
	198	1,99	2,97859E-001	-4,60260E-006	0,00000E+000	2,97997E-001	0,00000E+000	8	...........	-32768,00
	201	2,02	3,00862E-001	-4,07855E-006	0,00000E+000	3,00997E-001	0,00000E+000	8	...........	-32768,00
	204	2,05	3,03840E-001	-3,54609E-006	0,00000E+000	3,03998E-001	0,00000E+000	8	...........	-32768,00
	207	2,08	3,06840E-001	-3,03006E-006	0,00000E+000	3,06998E-001	0,00000E+000	8	...........	-32768,00
	210	2,11	3,09859E-001	-2,50362E-006	0,00000E+000	3,09998E-001	0,00000E+000	8	...........	-32768,00
	213	2,14	3,12862E-001	-1,96203E-006	0,00000E+000	3,12998E-001	0,00000E+000	8	...........	-32768,00
	216	2,17	3,15856E-001	-1,37754E-006	0,00000E+000	3,15998E-001	0,00000E+000	8	...........	-32768,00
	219	2,2	3,18851E-001	-8,07331E-007	0,00000E+000	3,18999E-001	0,00000E+000	8	...........	-32768,00
	222	2,23	3,21888E-001	-2,55859E-007	0,00000E+000	3,21999E-001	0,00000E+000	8	...........	-32768,00
	225	2,26	3,24883E-001	3,34282E-007	0,00000E+000	3,24999E-001	0,00000E+000	8	...........	-32768,00
	228	2,29	3,27875E-001	9,06188E-007	0,00000E+000	3,27999E-001	0,00000E+000	8	...........	-32768,00
	231	2,32	3,30860E-001	1,54148E-006	0,00000E+000	3,31000E-001	0,00000E+000	8	...........	-32768,00
	234	2,35	3,33884E-001	2,17085E-006	0,00000E+000	3,34000E-001	0,00000E+000	8	...........	-32768,00
	237	2,38	3,36870E-001	2,79496E-006	0,00000E+000	3,37000E-001	0,00000E+000	8	...........	-32768,00
	240	2,41	3,39867E-001	3,45339E-006	0,00000E+000	3,40000E-001	0,00000E+000	8	...........	-32768,00
	243	2,44	3,42875E-001	4,10394E-006	0,00000E+000	3,43001E-001	0,00000E+000	8	...........	-32768,00
	246	2,47	3,45865E-001	4,79684E-006	0,00000E+000	3,46001E-001	0,00000E+000	8	...........	-32768,00
	249	2,5	3,48873E-001	5,49989E-006	0,00000E+000	3,49001E-001	0,00000E+000	8	...........	-32768,00
	252	2,53	3,51853E-001	6,20638E-006	0,00000E+000	3,52001E-001	0,00000E+000	8	...........	-32768,00
	255	2,56	3,54875E-001	6,94685E-006	0,00000E+000	3,55002E-001	0,00000E+000	8	...........	-32768,00
	258	2,59	3,57860E-001	7,70108E-006	0,00000E+000	3,58002E-001	0,00000E+000	8	...........	-32768,00
	261	2,62	3,60867E-001	8,47571E-006	0,00000E+000	3,61002E-001	0,00000E+000	8	...........	-32768,00
	264	2,65	3,63869E-001	9,29773E-006	0,00000E+000	3,64002E-001	0,00000E+000	8	...........	-32768,00
	267	2,68	3,66868E-001	1,01155E-005	0,00000E+000	3,67003E-001	0,00000E+000	8	...........	-32768,00
	270	2,71	3,69867E-001	1,09759E-005	0,00000E+000	3,70003E-001	0,00000E+000	8	...........	-32768,00
	273	2,74	3,72895E-001	1,18730E-005	0,00000E+000	3,73003E-001	0,00000E+000	8	...........	-32768,00
	276	2,77	3,75885E-001	1,28567E-005	0,00000E+000	3,76003E-001	0,00000E+000	8	...........	-32768,00
	279	2,8	3,78882E-001	1,38281E-005	0,00000E+000	3,79004E-001	0,00000E+000	8	...........	-32768,00
	282	2,83	3,81883E-001	1,48551E-005	0,00000E+000	3,82004E-001	0,00000E+000	8	...........	-32768,00
	285	2,86	3,84887E-001	1,58959E-005	0,00000E+000	3,85004E-001	0,00000E+000	8	...........	-32768,00
	288	2,89	3,87889E-001	1,70169E-005	0,00000E+000	3,88004E-001	0,00000E+000	8	...........	-32768,00
	291	2,92	3,90879E-001	1,82143E-005	0,00000E+000	3,91005E-001	0,00000E+000	8	...........	-32768,00
	294	2,95	3,93867E-001	1,94054E-005	0,00000E+000	3,94005E-001	0,00000E+000	8	...........	-32768,00
	297	2,98	3,96877E-001	2,06546E-005	0,00000E+000	3,97005E-001	0,00000E+000	8	...........	-32768,00
	300	3,01	3,99865E-001	2,19494E-005	0,00000E+000	4,00005E-001	0,00000E+000	8	...........	-32768,00
	303	3,04	4,02878E-001	2,33243E-005	0,00000E+000	4,03005E-001	0,00000E+000	8	...........	-32768,00
	306	3,07	4,05878E-001	2,47387E-005	0,00000E+000	4,06006E-001	0,00000E+000	8	...........	-32768,00
	309	3,1	4,08863E-001	2,61472E-005	0,00000E+000	4,09006E-001	0,00000E+000	8	...........	-32768,00
	312	3,13	4,11885E-001	2,76085E-005	0,00000E+000	4,12006E-001	0,00000E+000	8	...........	-32768,00
	315	3,16	4,14870E-001	2,91132E-005	0,00000E+000	4,14994E-001	0,00000E+000	8	...........	-32768,00
	318	3,19	4,17862E-001	3,06204E-005	0,00000E+000	4,17994E-001	0,00000E+000	8	...........	-32768,00
	321	3,22	4,20859E-001	3,21605E-005	0,00000E+000	4,20994E-001	0,00000E+000	8	...........	-32768,00
	324	3,25	4,23885E-001	3,36669E-005	0,00000E+000	4,23995E-001	0,00000E+000	8	...........	-32768,00
	327	3,28	4,26877E-001	3,51569E-005	0,00000E+000	4,26995E-001	0,00000E+000	8	...........	-32768,00
	330	3,31	4,29887E-001	3,66859E-005	0,00000E+000	4,29995E-001	0,00000E+000	8	...........	-32768,00
	333	3,34	4,32869E-001	3,81955E-005	0,00000E+000	4,32995E-001	0,00000E+000	8	...........	-32768,00
	336	3,37	4,35876E-001	3,96797E-005	0,00000E+000	4,35996E-001	0,00000E+000	8	...........	-32768,00
	339	3,4	4,38863E-001	4,11474E-005	0,00000E+000	4,38996E-001	0,00000E+000	8	...........	-32768,00
	342	3,43	4,41873E-001	4,25920E-005	0,00000E+000	4,41996E-001	0,00000E+000	8	...........	-32768,00
	345	3,46	4,44845E-001	4,40525E-005	0,00000E+000	4,44996E-001	0,00000E+000	8	...........	-32768,00
	348	3,49	4,47862E-001	4,55106E-005	0,00000E+000	4,47997E-001	0,00000E+000	8	...........	-32768,00
	351	3,52	4,50871E-001	4,69787E-005	0,00000E+000	4,50997E-001	0,00000E+000	8	...........	-32768,00
	354	3,55	4,53861E-001	4,84068E-005	0,00000E+000	4,53997E-001	0,00000E+000	8	...........	-32768,00
	357	3,58	4,56863E-001	4,98423E-005	0,00000E+000	4,56997E-001	0,00000E+000	8	...........	-32768,00
	360	3,61	4,59857E-001	5,13035E-005	0,00000E+000	4,59998E-001	0,00000E+000	8	...........	-32768,00
	363	3,64	4,62871E-001	5,27651E-005	0,00000E+000	4,62998E-001	0,00000E+000	8	...........	-32768,00
	366	3,67	4,65874E-001	5,42547E-005	0,00000E+000	4,65998E-001	0,00000E+000	8	...........	-32768,00
	369	3,7	4,68871E-001	5,57313E-005	0,00000E+000	4,68998E-001	0,00000E+000	8	...........	-32768,00
	372	3,73	4,71863E-001	5,72036E-005	0,00000E+000	4,71999E-001	0,00000E+000	8	...........	-32768,00
	375	3,76	4,74895E-001	5,87161E-005	0,00000E+000	4,74999E-001	0,00000E+000	8	...........	-32768,00
	378	3,79	4,77892E-001	6,02574E-005	0,00000E+000	4,77999E-001	0,00000E+000	8	...........	-32768,00
	381	3,82	4,80872E-001	6,18895E-005	0,00000E+000	4,80999E-001	0,00000E+000	8	...........	-32768,00
	384	3,85	4,83870E-001	6,34763E-005	0,00000E+000	4,83999E-001	0,00000E+000	8	...........	-32768,00
	387	3,88	4,86877E-001	6,50813E-005	0,00000E+000	4,87000E-001	0,00000E+000	8	...........	-32768,00
	390	3,91	4,89888E-001	6,67746E-005	0,00000E+000	4,90000E-001	0,00000E+000	8	...........	-32768,00
	393	3,94	4,92882E-001	6,85131E-005	0,00000E+000	4,93000E-001	0,00000E+000	8	...........	-32768,00
	396	3,97	4,95876E-001	7,03360E-005	0,00000E+000	4,96000E-001	0,00000E+000	8	...........	-32768,00
	399	4	4,98865E-001	7,22264E-005	0,00000E+000	4,99001E-001	0,00000E+000	8	...........	-32768,00
	402	4,03	5,01886E-001	7,41382E-005	0,00000E+000	5,02001E-001	0,00000E+000	8	...........	-32768,00
	405	4,06	5,04873E-001	7,61654E-005	0,00000E+000	5,05001E-001	0,00000E+000	8	...........	-32768,00
	408	4,09	5,07884E-001	7,82478E-005	0,00000E+000	5,08001E-001	0,00000E+000	8	...........	-32768,00
	411	4,12	5,10873E-001	8,05061E-005	0,00000E+000	5,11002E-001	0,00000E+000	8	...........	-32768,00
	414	4,15	5,13898E-001	8,27814E-005	0,00000E+000	5,14002E-001	0,00000E+000	8	...........	-32768,00
	417	4,18	5,16889E-001	8,51634E-005	0,00000E+000	5,17002E-001	0,00000E+000	8	...........	-32768,00
	420	4,21	5,19888E-001	8,77068E-005	0,00000E+000	5,20002E-001	0,00000E+000	8	...........	-32768,00
	423	4,24	5,22898E-001	9,03236E-005	0,00000E+000	5,23003E-001	0,00000E+000	9	...........	-32768,00
	426	4,27	5,25909E-001	9,31020E-005	0,00000E+000	5,26003E-001	0,00000E+000	9	...........	-32768,00
	429	4,3	5,28905E-001	9,60206E-005	0,00000E+000	5,29003E-001	0,00000E+000	9	...........	-32768,00
	432	4,33	5,31889E-001	9,90518E-005	0,00000E+000	5,32003E-001	0,00000E+000	9	...........	-32768,00
	435	4,36	5,34895E-001	1,02272E-004	0,00000E+000	5,35004E-001	0,00000E+000	9	...........	-32768,00
	438	4,39	5,37883E-001	1,05632E-004	0,00000E+000	5,38004E-001	0,00000E+000	9	...........	-32768,00
	441	4,42	5,40906E-001	1,09179E-004	0,00000E+000	5,41004E-001	0,00000E+000	9	...........	-32768,00
	444	4,45	5,43903E-001	1,12850E-004	0,00000E+000	5,44004E-001	0,00000E+000	9	...........	-32768,00
	447	4,48	5,46909E-001	1,16626E-004	0,00000E+000	5,47005E-001	0,00000E+000	9	...........	-32768,00
	450	4,51	5,49898E-001	1,20681E-004	0,00000E+000	5,50005E-001	0,00000E+000	9	...........	-32768,00
	453	4,54	5,52900E-001	1,24818E-004	0,00000E+000	5,53005E-001	0,00000E+000	9	...........	-32768,00
	456	4,57	5,55896E-001	1,29174E-004	0,00000E+000	5,56005E-001	0,00000E+000	9	...........	-32768,00
	459	4,6	5,58897E-001	1,33705E-004	0,00000E+000	5,59005E-001	0,00000E+000	9	...........	-32768,00
	462	4,63	5,61884E-001	1,38339E-004	0,00000E+000	5,62006E-001	0,00000E+000	9	...........	-32768,00
	465	4,66	5,64913E-001	1,43205E-004	0,00000E+000	5,65006E-001	0,00000E+000	9	...........	-32768,00
	468	4,69	5,67930E-001	1,48252E-004	0,00000E+000	5,68006E-001	0,00000E+000	9	...........	-32768,00
	471	4,72	5,70878E-001	1,53397E-004	0,00000E+000	5,70994E-001	0,00000E+000	9	...........	-32768,00
	474	4,75	5,73892E-001	1,58783E-004	0,00000E+000	5,73994E-001	0,00000E+000	9	...........	-32768,00
	477	4,78	5,76869E-001	1,64266E-004	0,00000E+000	5,76994E-001	0,00000E+000	9	...........	-32768,00
	480	4,81	5,79895E-001	1,70001E-004	0,00000E+000	5,79995E-001	0,00000E+000	9	...........	-32768,00
	483	4,84	5,82898E-001	1,75837E-004	0,00000E+000	5,82995E-001	0,00000E+000	9	...........	-32768,00
	486	4,87	5,85883E-001	1,81853E-004	0,00000E+000	5,85995E-001	0,00000E+000	9	...........	-32768,00
	489	4,9	5,88884E-001	1,88104E-004	0,00000E+000	5,88995E-001	0,00000E+000	9	...........	-32768,00
	492	4,93	5,91888E-001	1,94496E-004	0,00000E+000	5,91996E-001	0,00000E+000	9	...........	-32768,00
	495	4,96	5,94884E-001	2,01194E-004	0,00000E+000	5,94996E-001	0,00000E+000	9	...........	-32768,00
	498	4,99	5,97890E-001	2,08012E-004	0,00000E+000	5,97996E-001	0,00000E+000	9	...........	-32768,00
	501	5,02	6,00881E-001	2,15111E-004	0,00000E+000	6,00996E-001	0,00000E+000	9	...........	-32768,00
	504	5,05	6,03907E-001	2,22497E-004	0,00000E+000	6,03997E-001	0,00000E+000	9	...........	-32768,00
	507	5,08	6,06912E-001	2,30266E-004	0,00000E+000	6,06997E-001	0,00000E+000	9	...........	-32768,00
	510	5,11	6,09899E-001	2,38455E-004	0,00000E+000	6,09997E-001	0,00000E+000	9	...........	-32768,00
	513	5,14	6,12891E-001	2,47073E-004	0,00000E+000	6,12997E-001	0,00000E+000	9	...........	-32768,00
	516	5,17	6,15917E-001	2,56151E-004	0,00000E+000	6,15998E-001	0,00000E+000	9	...........	-32768,00
	519	5,2	6,18926E-001	2,65346E-004	0,00000E+000	6,18998E-001	0,00000E+000	9	...........	-32768,00
	522	5,23	6,21890E-001	2,74752E-004	0,00000E+000	6,21998E-001	0,00000E+000	9	...........	-32768,00
	525	5,26	6,24885E-001	2,84645E-004	0,00000E+000	6,24998E-001	0,00000E+000	9	...........	-32768,00
	528	5,29	6,27883E-001	2,94845E-004	0,00000E+000	6,27999E-001	0,00000E+000	9	...........	-32768,00
	531	5,32	6,30900E-001	3,05208E-004	0,00000E+000	6,30999E-001	0,00000E+000	9	...........	-32768,00
	534	5,35	6,33910E-001	3,16029E-004	0,00000E+000	6,33999E-001	0,00000E+000	9	...........	-32768,00
	537	5,38	6,36900E-001	3,26865E-004	0,00000E+000	6,36999E-001	0,00000E+000	9	...........	-32768,00
	540	5,41	6,39897E-001	3,37837E-004	0,00000E+000	6,40000E-001	0,00000E+000	9	...........	-32768,00
	543	5,44	6,42918E-001	3,49004E-004	0,00000E+000	6,43000E-001	0,00000E+000	9	...........	-32768,00
	546	5,47	6,45906E-001	3,60584E-004	0,00000E+000	6,46000E-001	0,00000E+000	9	...........	-32768,00
	549	5,5	6,48904E-001	3,72272E-004	0,00000E+000	6,49000E-001	0,00000E+000	9	...........	-32768,00
	552	5,53	6,51897E-001	3,84070E-004	0,00000E+000	6,52000E-001	0,00000E+000	9	...........	-32768,00
	555	5,56	6,54905E-001	3,95976E-004	0,00000E+000	6,55001E-001	0,00000E+000	9	...........	-32768,00
	558	5,59	6,57896E-001	4,07859E-004	0,00000E+000	6,58001E-001	0,00000E+000	9	...........	-32768,00
	561	5,62	6,60898E-001	4,20304E-004	0,00000E+000	6,61001E-001	0,00000E+000	9	...........	-32768,00
	564	5,65	6,63899E-001	4,32688E-004	0,00000E+000	6,64001E-001	0,00000E+000	9	...........	-32768,00
	567	5,68	6,66918E-001	4,45417E-004	0,00000E+000	6,67002E-001	0,00000E+000	9	...........	-32768,00
	570	5,71	6,69919E-001	4,57963E-004	0,00000E+000	6,70002E-001	0,00000E+000	9	...........	-32768,00
	573	5,74	6,72904E-001	4,70319E-004	0,00000E+000	6,73002E-001	0,00000E+000	9	...........	-32768,00
	576	5,77	6,75902E-001	4,83069E-004	0,00000E+000	6,76002E-001	0,00000E+000	9	...........	-32768,00
	579	5,8	6,78894E-001	4,95563E-004	0,00000E+000	6,79003E-001	0,00000E+000	9	...........	-32768,00
	582	5,83	6,81921E-001	5,08124E-004	0,00000E+000	6,82003E-001	0,00000E+000	9	...........	-32768,00
	585	5,86	6,84939E-001	5,20447E-004	0,00000E+000	6,85003E-001	0,00000E+000	9	...........	-32768,00
	588	5,89	6,87906E-001	5,32465E-004	0,00000E+000	6,88003E-001	0,00000E+000	9	...........	-32768,00
	591	5,92	6,90906E-001	5,44211E-004	0,00000E+000	6,91004E-001	0,00000E+000	9	...........	-32768,00
	594	5,95	6,93933E-001	5,55420E-004	0,00000E+000	6,94004E-001	0,00000E+000	9	...........	-32768,00
	597	5,98	6,96921E-001	5,66326E-004	0,00000E+000	6,97004E-001	0,00000E+000	9	...........	-32768,00
	600	6,01	6,99926E-001	5,76135E-004	0,00000E+000	7,00004E-001	0,00000E+000	9	...........	-32768,00
	603	6,04	7,02919E-001	5,85583E-004	0,00000E+000	7,03005E-001	0,00000E+000	9	...........	-32768,00
	606	6,07	7,05919E-001	5,93521E-004	0,00000E+000	7,06005E-001	0,00000E+000	9	...........	-32768,00
	609	6,1	7,08925E-001	6,00388E-004	0,00000E+000	7,09005E-001	0,00000E+000	9	...........	-32768,00
	612	6,13	7,11924E-001	6,05609E-004	0,00000E+000	7,12005E-001	0,00000E+000	9	...........	-32768,00
	615	6,16	7,14905E-001	6,09653E-004	0,00000E+000	7,15006E-001	0,00000E+000	9	...........	-32768,00
	618	6,19	7,17939E-001	6,12367E-004	0,00000E+000	7,18006E-001	0,00000E+000	9	...........	-32768,00
	621	6,22	7,20934E-001	6,14152E-004	0,00000E+000	7,21006E-001	0,00000E+000	9	...........	-32768,00
	624	6,25	7,23935E-001	6,14940E-004	0,00000E+000	7,24006E-001	0,00000E+000	9	...........	-32768,00
	627	6,28	7,26914E-001	6,14110E-004	0,00000E+000	7,26994E-001	0,00000E+000	9	...........	-32768,00
	630	6,31	7,29918E-001	6,12089E-004	0,00000E+000	7,29994E-001	0,00000E+000	9	...........	-32768,00
	633	6,34	7,32928E-001	6,08187E-004	0,00000E+000	7,32994E-001	0,00000E+000	9	...........	-32768,00
	636	6,37	7,35921E-001	6,03077E-004	0,00000E+000	7,35995E-001	0,00000E+000	9	...........	-32768,00
	639	6,4	7,38928E-001	5,96416E-004	0,00000E+000	7,38995E-001	0,00000E+000	9	...........	-32768,00
	642	6,43	7,41915E-001	5,88682E-004	0,00000E+000	7,41995E-001	0,00000E+000	9	...........	-32768,00
	645	6,46	7,44938E-001	5,80064E-004	0,00000E+000	7,44995E-001	0,00000E+000	9	...........	-32768,00
	648	6,49	7,47954E-001	5,70771E-004	0,00000E+000	7,47996E-001	0,00000E+000	9	...........	-32768,00
	651	6,52	7,50932E-001	5,59831E-004	0,00000E+000	7,50996E-001	0,00000E+000	9	...........	-32768,00
	654	6,55	7,53936E-001	5,47336E-004	0,00000E+000	7,53996E-001	0,00000E+000	9	...........	-32768,00
	657	6,58	7,56952E-001	5,32535E-004	0,00000E+000	7,56996E-001	0,00000E+000	9	...........	-32768,00
	660	6,61	7,59947E-001	5,14752E-004	0,00000E+000	7,59997E-001	0,00000E+000	9	...........	-32768,00
	663	6,64	7,62949E-001	4,95225E-004	0,00000E+000	7,62997E-001	0,00000E+000	9	...........	-32768,00
	666	6,67	7,65938E-001	4,74327E-004	0,00000E+000	7,65997E-001	0,00000E+000	9	...........	-32768,00
	669	6,7	7,68932E-001	4,52238E-004	0,00000E+000	7,68997E-001	0,00000E+000	9	...........	-32768,00
	672	6,73	7,71942E-001	4,29775E-004	0,00000E+000	7,71998E-001	0,00000E+000	9	...........	-32768,00
	675	6,76	7,74940E-001	4,09163E-004	0,00000E+000	7,74998E-001	0,00000E+000	9	...........	-32768,00
	678	6,79	7,77932E-001	3,92285E-004	0,00000E+000	7,77998E-001	0,00000E+000	9	...........	-32768,00
	681	6,82	7,80930E-001	3,77657E-004	0,00000E+000	7,80998E-001	0,00000E+000	9	...........	-32768,00
	684	6,85	7,83943E-001	3,64518E-004	0,00000E+000	7,83999E-001	0,00000E+000	9	...........	-32768,00
	687	6,88	7,86945E-001	3,53348E-004	0,00000E+000	7,86999E-001	0,00000E+000	9	...........	-32768,00
	690	6,91	7,89967E-001	3,43549E-004	0,00000E+000	7,89999E-001	0,00000E+000	9	...........	-32768,00
	693	6,94	7,92937E-001	3,34800E-004	0,00000E+000	7,92999E-001	0,00000E+000	9	...........	-32768,00
	696	6,97	7,95965E-001	3,27195E-004	0,00000E+000	7,96000E-001	0,00000E+000	9	...........	-32768,00
	699	7	7,98939E-001	3,20739E-004	0,00000E+000	7,99000E-001	0,00000E+000	9	...........	-32768,00
	702	7,03	7,97946E-001	3,08155E-004	0,00000E+000	7,98000E-001	0,00000E+000	9	...........	-32768,00
	705	7,06	7,94949E-001	2,93784E-004	0,00000E+000	7,94999E-001	0,00000E+000	9	...........	-32768,00
	708	7,09	7,91935E-001	2,80801E-004	0,00000E+000	7,91999E-001	0,00000E+000	9	...........	-32768,00
	711	7,12	7,88942E-001	2,68989E-004	0,00000E+000	7,88999E-001	0,00000E+000	9	...........	-32768,00
	714	7,15	7,85954E-001	2,58078E-004	0,00000E+000	7,85999E-001	0,00000E+000	9	...........	-32768,00
	717	7,18	7,82945E-001	2,48269E-004	0,00000E+000	7,82998E-001	0,00000E+000	9	...........	-32768,00
	720	7,21	7,79934E-001	2,39039E-004	0,00000E+000	7,79998E-001	0,00000E+000	9	...........	-32768,00
	723	7,24	7,76932E-001	2,30557E-004	0,00000E+000	7,76998E-001	0,00000E+000	9	...........	-32768,00
	726	7,27	7,73941E-001	2,22579E-004	0,00000E+000	7,73998E-001	0,00000E+000	9	...........	-32768,00
	729	7,3	7,70947E-001	2,15124E-004	0,00000E+000	7,70998E-001	0,00000E+000	9	...........	-32768,00
	732	7,33	7,67930E-001	2,08374E-004	0,00000E+000	7,67997E-001	0,00000E+000	9	...........	-32768,00
	735	7,36	7,64923E-001	2,01793E-004	0,00000E+000	7,64997E-001	0,00000E+000	9	...........	-32768,00
	738	7,39	7,61921E-001	1,95656E-004	0,00000E+000	7,61997E-001	0,00000E+000	9	...........	-32768,00
	741	7,42	7,58935E-001	1,89983E-004	0,00000E+000	7,58997E-001	0,00000E+000	9	...........	-32768,00
	744	7,45	7,55913E-001	1,84889E-004	0,00000E+000	7,55996E-001	0,00000E+000	9	...........	-32768,00
	747	7,48	7,52923E-001	1,79479E-004	0,00000E+000	7,52996E-001	0,00000E+000	9	...........	-32768,00
	750	7,51	7,49927E-001	1,74522E-004	0,00000E+000	7,49996E-001	0,00000E+000	9	...........	-32768,00
	753	7,54	7,46934E-001	1,69815E-004	0,00000E+000	7,46996E-001	0,00000E+000	9	...........	-32768,00
	756	7,57	7,43942E-001	1,65622E-004	0,00000E+000	7,43995E-001	0,00000E+000	9	...........	-32768,00
	759	7,6	7,40911E-001	1,61383E-004	0,00000E+000	7,40995E-001	0,00000E+000	9	...........	-32768,00
	762	7,63	7,37926E-001	1,57390E-004	0,00000E+000	7,37995E-001	0,00000E+000	9	...........	-32768,00
	765	7,66	7,34935E-001	1,53579E-004	0,00000E+000	7,34995E-001	0,00000E+000	9	...........	-32768,00
	768	7,69	7,31946E-001	1,49948E-004	0,00000E+000	7,31994E-001	0,00000E+000	9	...........	-32768,00
	771	7,72	7,28917E-001	1,46417E-004	0,00000E+000	7,28994E-001	0,00000E+000	9	...........	-32768,00
	774	7,75	7,25930E-001	1,43009E-004	0,00000E+000	7,25994E-001	0,00000E+000	9	...........	-32768,00
	777	7,78	7,22934E-001	1,39765E-004	0,00000E+000	7,23006E-001	0,00000E+000	9	...........	-32768,00
	780	7,81	7,19942E-001	1,36597E-004	0,00000E+000	7,20006E-001	0,00000E+000	9	...........	-32768,00
	783	7,84	7,16912E-001	1,33592E-004	0,00000E+000	7,17006E-001	0,00000E+000	9	...........	-32768,00
	786	7,87	7,13914E-001	1,30619E-004	0,00000E+000	7,14005E-001	0,00000E+000	9	...........	-32768,00
	789	7,9	7,10920E-001	1,27758E-004	0,00000E+000	7,11005E-001	0,00000E+000	9	...........	-32768,00
	792	7,93	7,07928E-001	1,25111E-004	0,00000E+000	7,08005E-001	0,00000E+000	9	...........	-32768,00
	795	7,96	7,04923E-001	1,22539E-004	0,00000E+000	7,05005E-001	0,00000E+000	9	...........	-32768,00
	798	7,99	7,01915E-001	1,20041E-004	0,00000E+000	7,02004E-001	0,00000E+000	9	...........	-32768,00
	801	8,02	6,98944E-001	1,17600E-004	0,00000E+000	6,99004E-001	0,00000E+000	9	...........	-32768,00
	804	8,05	6,95924E-001	1,15180E-004	0,00000E+000	6,96004E-001	0,00000E+000	9	...........	-32768,00
	807	8,08	6,92942E-001	1,12904E-004	0,00000E+000	6,93004E-001	0,00000E+000	9	...........	-32768,00
	810	8,11	6,89922E-001	1,10643E-004	0,00000E+000	6,90004E-001	0,00000E+000	9	...........	-32768,00
	813	8,14	6,86915E-001	1,08434E-004	0,00000E+000	6,87003E-001	0,00000E+000	9	...........	-32768,00
	816	8,17	6,83926E-001	1,06277E-004	0,00000E+000	6,84003E-001	0,00000E+000	9	...........	-32768,00
	819	8,2	6,80926E-001	1,04187E-004	0,00000E+000	6,81003E-001	0,00000E+000	9	...........	-32768,00
	822	8,23	6,77911E-001	1,02073E-004	0,00000E+000	6,78003E-001	0,00000E+000	9	...........	-32768,00
	825	8,26	6,74904E-001	9,99762E-005	0,00000E+000	6,75002E-001	0,00000E+000	9	...........	-32768,00
	828	8,29	6,71898E-001	9,79608E-005	0,00000E+000	6,72002E-001	0,00000E+000	9	...........	-32768,00
	831	8,32	6,68909E-001	9,60389E-005	0,00000E+000	6,69002E-001	0,00000E+000	9	...........	-32768,00
	834	8,35	6,65889E-001	9,40931E-005	0,00000E+000	6,66002E-001	0,00000E+000	9	...........	-32768,00
	837	8,38	6,62909E-001	9,21273E-005	0,00000E+000	6,63001E-001	0,00000E+000	9	...........	-32768,00
	840	8,41	6,59899E-001	9,02491E-005	0,00000E+000	6,60001E-001	0,00000E+000	9	...........	-32768,00
	843	8,44	6,56912E-001	8,84037E-005	0,00000E+000	6,57001E-001	0,00000E+000	9	...........	-32768,00
	846	8,47	6,53918E-001	8,65836E-005	0,00000E+000	6,54001E-001	0,00000E+000	9	...........	-32768,00
	849	8,5	6,50907E-001	8,47797E-005	0,00000E+000	6,51000E-001	0,00000E+000	9	...........	-32768,00
	852	8,53	6,47893E-001	8,30133E-005	0,00000E+000	6,48000E-001	0,00000E+000	9	...........	-32768,00
	855	8,56	6,44906E-001	8,12750E-005	0,00000E+000	6,45000E-001	0,00000E+000	9	...........	-32768,00
	858	8,59	6,41905E-001	7,95664E-005	0,00000E+000	6,42000E-001	0,00000E+000	8	...........	-32768,00
	861	8,62	6,38889E-001	7,78877E-005	0,00000E+000	6,38999E-001	0,00000E+000	8	...........	-32768,00
	864	8,65	6,35901E-001	7,62306E-005	0,00000E+000	6,35999E-001	0,00000E+000	8	...........	-32768,00
	867	8,68	6,32890E-001	7,46191E-005	0,00000E+000	6,32999E-001	0,00000E+000	8	...........	-32768,00
	870	8,71	6,29905E-001	7,30140E-005	0,00000E+000	6,29999E-001	0,00000E+000	8	...........	-32768,00
	873	8,74	6,26876E-001	7,14856E-005	0,00000E+000	6,26998E-001	0,00000E+000	8	...........	-32768,00
	876	8,77	6,23883E-001	6,99799E-005	0,00000E+000	6,23998E-001	0,00000E+000	8	...........	-32768,00
	879	8,8	6,20877E-001	6,85378E-005	0,00000E+000	6,20998E-001	0,00000E+000	8	...........	-32768,00
	882	8,83	6,17890E-001	6,71933E-005	0,00000E+000	6,17998E-001	0,00000E+000	8	...........	-32768,00
	885	8,86	6,14873E-001	6,58705E-005	0,00000E+000	6,14998E-001	0,00000E+000	8	...........	-32768,00
	888	8,89	6,11888E-001	6,46568E-005	0,00000E+000	6,11997E-001	0,00000E+000	8	...........	-32768,00
	891	8,92	6,08888E-001	6,35226E-005	0,00000E+000	6,08997E-001	0,00000E+000	8	...........	-32768,00
	894	8,95	6,05909E-001	6,24066E-005	0,00000E+000	6,05997E-001	0,00000E+000	8	...........	-32768,00
	897	8,98	6,02894E-001	6,13603E-005	0,00000E+000	6,02997E-001	0,00000E+000	8	...........	-32768,00
	900	9,01	5,99885E-001	6,03764E-005	0,00000E+000	5,99996E-001	0,00000E+000	8	...........	-32768,00
	903	9,04	5,96893E-001	5,94074E-005	0,00000E+000	5,96996E-001	0,00000E+000	8	...........	-32768,00
	906	9,07	5,93895E-001	5,84706E-005	0,00000E+000	5,93996E-001	0,00000E+000	8	...........	-32768,00
	909	9,1	5,90890E-001	5,75235E-005	0,00000E+000	5,90996E-001	0,00000E+000	8	...........	-32768,00
	912	9,13	5,87885E-001	5,66489E-005	0,00000E+000	5,87995E-001	0,00000E+000	8	...........	-32768,00
	915	9,16	5,84888E-001	5,57470E-005	0,00000E+000	5,84995E-001	0,00000E+000	8	...........	-32768,00
	918	9,19	5,81884E-001	5,48928E-005	0,00000E+000	5,81995E-001	0,00000E+000	8	...........	-32768,00
	921	9,22	5,78892E-001	5,39962E-005	0,00000E+000	5,78995E-001	0,00000E+000	8	...........	-32768,00
	924	9,25	5,75864E-001	5,31579E-005	0,00000E+000	5,75994E-001	0,00000E+000	8	...........	-32768,00
	927	9,28	5,72881E-001	5,23219E-005	0,00000E+000	5,72994E-001	0,00000E+000	8	...........	-32768,00
	930	9,31	5,69880E-001	5,14516E-005	0,00000E+000	5,69994E-001	0,00000E+000	8	...........	-32768,00
	933	9,34	5,66896E-001	5,06610E-005	0,00000E+000	5,67006E-001	0,00000E+000	8	...........	-32768,00
	936	9,37	5,63879E-001	4,98354E-005	0,00000E+000	5,64006E-001	0,00000E+000	8	...........	-32768,00
	939	9,4	5,60881E-001	4,89701E-005	0,00000E+000	5,61006E-001	0,00000E+000	8	...........	-32768,00
	942	9,43	5,57885E-001	4,80951E-005	0,00000E+000	5,58005E-001	0,00000E+000	8	...........	-32768,00
	945	9,46	5,54887E-001	4,72724E-005	0,00000E+000	5,55005E-001	0,00000E+000	8	...........	-32768,00
	948	9,49	5,51912E-001	4,64257E-005	0,00000E+000	5,52005E-001	0,00000E+000	8	...........	-32768,00
	951	9,52	5,48881E-001	4,55841E-005	0,00000E+000	5,49005E-001	0,00000E+000	8	...........	-32768,00
	954	9,55	5,45891E-001	4,47506E-005	0,00000E+000	5,46004E-001	0,00000E+000	8	...........	-32768,00
	957	9,58	5,42910E-001	4,38798E-005	0,00000E+000	5,43004E-001	0,00000E+000	8	...........	-32768,00
	960	9,61	5,39895E-001	4,29889E-005	0,00000E+000	5,40004E-001	0,00000E+000	8	...........	-32768,00
	963	9,64	5,36874E-001	4,21160E-005	0,00000E+000	5,37004E-001	0,00000E+000	8	...........	-32768,00
	966	9,67	5,33876E-001	4,12109E-005	0,00000E+000	5,34003E-001	0,00000E+000	8	...........	-32768,00
	969	9,7	5,30889E-001	4,02524E-005	0,00000E+000	5,31003E-001	0,00000E+000	8	...........	-32768,00
	972	9,73	5,27879E-001	3,93295E-005	0,00000E+000	5,28003E-001	0,00000E+000	8	...........	-32768,00
	975	9,76	5,24854E-001	3,83631E-005	0,00000E+000	5,25003E-001	0,00000E+000	8	...........	-32768,00
	978	9,79	5,21880E-001	3,73760E-005	0,00000E+000	5,22003E-001	0,00000E+000	8	...........	-32768,00
	981	9,82	5,18879E-001	3,63670E-005	0,00000E+000	5,19002E-001	0,00000E+000	8	...........	-32768,00
	984	9,85	5,15884E-001	3,53885E-005	0,00000E+000	5,16002E-001	0,00000E+000	8	...........	-32768,00
	987	9,88	5,12890E-001	3,43522E-005	0,00000E+000	5,13002E-001	0,00000E+000	8	...........	-32768,00
	990	9,91	5,09873E-001	3,33052E-005	0,00000E+000	5,10002E-001	0,00000E+000	8	...........	-32768,00
	993	9,94	5,06890E-001	3,23254E-005	0,00000E+000	5,07001E-001	0,00000E+000	8	...........	-32768,00
	996	9,97	5,03880E-001	3,12303E-005	0,00000E+000	5,04001E-001	0,00000E+000	8	...........	-32768,00
	999	10	5,00889E-001	3,01623E-005	0,00000E+000	5,01001E-001	0,00000E+000	8	...........	-32768,00
	1002	10,03	4,97867E-001	2,90874E-005	0,00000E+000	4,98001E-001	0,00000E+000	8	...........	-32768,00
	1005	10,06	4,94856E-001	2,79439E-005	0,00000E+000	4,95000E-001	0,00000E+000	8	...........	-32768,00
	1008	10,09	4,91887E-001	2,68004E-005	0,00000E+000	4,92000E-001	0,00000E+000	8	...........	-32768,00
	1011	10,12	4,88899E-001	2,56167E-005	0,00000E+000	4,89000E-001	0,00000E+000	8	...........	-32768,00
	1014	10,15	4,85862E-001	2,43745E-005	0,00000E+000	4,86000E-001	0,00000E+000	8	...........	-32768,00
	1017	10,18	4,82858E-001	2,29072E-005	0,00000E+000	4,82999E-001	0,00000E+000	8	...........	-32768,00
	1020	10,21	4,79879E-001	2,11252E-005	0,00000E+000	4,79999E-001	0,00000E+000	8	...........	-32768,00
	1023	10,24	4,76866E-001	1,90060E-005	0,00000E+000	4,76999E-001	0,00000E+000	8	...........	-32768,00
	1026	10,27	4,73867E-001	1,62771E-005	0,00000E+000	4,73999E-001	0,00000E+000	8	...........	-32768,00
	1029	10,3	4,70870E-001	1,27523E-005	0,00000E+000	4,70998E-001	0,00000E+000	8	...........	-32768,00
	1032	10,33	4,67879E-001	8,27438E-006	0,00000E+000	4,67998E-001	0,00000E+000	8	...........	-32768,00
	1035	10,36	4,64883E-001	2,64293E-006	0,00000E+000	4,64998E-001	0,00000E+000	8	...........	-32768,00
	1038	10,39	4,61877E-001	-4,27752E-006	0,00000E+000	4,61998E-001	0,00000E+000	8	...........	-32768,00
	1041	10,42	4,58859E-001	-1,26300E-005	0,00000E+000	4,58997E-001	0,00000E+000	8	...........	-32768,00
	1044	10,45	4,55875E-001	-2,24080E-005	0,00000E+000	4,55997E-001	0,00000E+000	8	...........	-32768,00
	1047	10,48	4,52867E-001	-3,35221E-005	0,00000E+000	4,52997E-001	0,00000E+000	8	...........	-32768,00
	1050	10,51	4,49889E-001	-4,58462E-005	0,00000E+000	4,49997E-001	0,00000E+000	8	...........	-32768,00
	1053	10,54	4,46878E-001	-5,90308E-005	0,00000E+000	4,46997E-001	0,00000E+000	8	...........	-32768,00
	1056	10,57	4,43871E-001	-7,26658E-005	0,00000E+000	4,43996E-001	0,00000E+000	8	...........	-32768,00
	1059	10,6	4,40873E-001	-8,64906E-005	0,00000E+000	4,40996E-001	0,00000E+000	8	...........	-32768,00
	1062	10,63	4,37892E-001	-1,00189E-004	0,00000E+000	4,37996E-001	0,00000E+000	9	...........	-32768,00
	1065	10,66	4,34855E-001	-1,13455E-004	0,00000E+000	4,34996E-001	0,00000E+000	9	...........	-32768,00
	1068	10,69	4,31861E-001	-1,26229E-004	0,00000E+000	4,31995E-001	0,00000E+000	9	...........	-32768,00
	1071	10,72	4,28866E-001	-1,38220E-004	0,00000E+000	4,28995E-001	0,00000E+000	9	...........	-32768,00
	1074	10,75	4,25880E-001	-1,49429E-004	0,00000E+000	4,25995E-001	0,00000E+000	9	...........	-32768,00
	1077	10,78	4,22857E-001	-1,59719E-004	0,00000E+000	4,22995E-001	0,00000E+000	9	...........	-32768,00
	1080	10,81	4,19863E-001	-1,69230E-004	0,00000E+000	4,19994E-001	0,00000E+000	9	...........	-32768,00
	1083	10,84	4,16872E-001	-1,77911E-004	0,00000E+000	4,16994E-001	0,00000E+000	9	...........	-32768,00
	1086	10,87	4,13868E-001	-1,85686E-004	0,00000E+000	4,13994E-001	0,00000E+000	9	...........	-32768,00
	1089	10,9	4,10887E-001	-1,92760E-004	0,00000E+000	4,11006E-001	0,00000E+000	9	...........	-32768,00
	1092	10,93	4,07885E-001	-1,99019E-004	0,00000E+000	4,08006E-001	0,00000E+000	9	...........	-32768,00
	1095	10,96	4,04869E-001	-2,04667E-004	0,00000E+000	4,05006E-001	0,00000E+000	9	...........	-32768,00
	1098	10,99	4,01886E-001	-2,09675E-004	0,00000E+000	4,02005E-001	0,00000E+000	9	...........	-32768,00
	1101	11,02	3,98878E-001	-2,14046E-004	0,00000E+000	3,99005E-001	0,00000E+000	9	...........	-32768,00
	1104	11,05	3,95885E-001	-2,17771E-004	0,00000E+000	3,96005E-001	0,00000E+000	9	...........	-32768,00
	1107	11,08	3,92887E-001	-2,21080E-004	0,00000E+000	3,93005E-001	0,00000E+000	9	...........	-32768,00
	1110	11,11	3,89885E-001	-2,23879E-004	0,00000E+000	3,90004E-001	0,00000E+000	9	...........	-32768,00
	1113	11,14	3,86882E-001	-2,26102E-004	0,00000E+000	3,87004E-001	0,00000E+000	9	...........	-32768,00
	1116	11,17	3,83882E-001	-2,28139E-004	0,00000E+000	3,84004E-001	0,00000E+000	9	...........	-32768,00
	1119	11,2	3,80874E-001	-2,29521E-004	0,00000E+000	3,81004E-001	0,00000E+000	9	...........	-32768,00
	1122	11,23	3,77871E-001	-2,30436E-004	0,00000E+000	3,78003E-001	0,00000E+000	9	...........	-32768,00
	1125	11,26	3,74892E-001	-2,30998E-004	0,00000E+000	3,75003E-001	0,00000E+000	9	...........	-32768,00
	1128	11,29	3,71858E-001	-2,31209E-004	0,00000E+000	3,72003E-001	0,00000E+000	9	...........	-32768,00
	1131	11,32	3,68860E-001	-2,31095E-004	0,00000E+000	3,69003E-001	0,00000E+000	9	...........	-32768,00
	1134	11,35	3,65872E-001	-2,30551E-004	0,00000E+000	3,66003E-001	0,00000E+000	9	...........	-32768,00
	1137	11,38	3,62875E-001	-2,29714E-004	0,00000E+000	3,63002E-001	0,00000E+000	9	...........	-32768,00
	1140	11,41	3,59880E-001	-2,28579E-004	0,00000E+000	3,60002E-001	0,00000E+000	9	...........	-32768,00
	1143	11,44	3,56861E-001	-2,27066E-004	0,00000E+000	3,57002E-001	0,00000E+000	9	...........	-32768,00
	1146	11,47	3,53862E-001	-2,25353E-004	0,00000E+000	3,54002E-001	0,00000E+000	9	...........	-32768,00
	1149	11,5	3,50856E-001	-2,23339E-004	0,00000E+000	3,51001E-001	0,00000E+000	9	...........	-32768,00
	1152	11,53	3,47854E-001	-2,21116E-004	0,00000E+000	3,48001E-001	0,00000E+000	9	...........	-32768,00
	1155	11,56	3,44852E-001	-2,18625E-004	0,00000E+000	3,45001E-001	0,00000E+000	9	...........	-32768,00
	1158	11,59	3,41854E-001	-2,15986E-004	0,00000E+000	3,42001E-001	0,00000E+000	9	...........	-32768,00
	1161	11,62	3,38852E-001	-2,13075E-004	0,00000E+000	3,39000E-001	0,00000E+000	9	...........	-32768,00
	1164	11,65	3,35874E-001	-2,10071E-004	0,00000E+000	3,36000E-001	0,00000E+000	9	...........	-32768,00
	1167	11,68	3,32871E-001	-2,06951E-004	0,00000E+000	3,33000E-001	0,00000E+000	9	...........	-32768,00
	1170	11,71	3,29857E-001	-2,03705E-004	0,00000E+000	3,30000E-001	0,00000E+000	9	...........	-32768,00
	1173	11,74	3,26867E-001	-2,00384E-004	0,00000E+000	3,26999E-001	0,00000E+000	9	...........	-32768,00
	1176	11,77	3,23874E-001	-1,96989E-004	0,00000E+000	3,23999E-001	0,00000E+000	9	...........	-32768,00
	1179	11,8	3,20883E-001	-1,93553E-004	0,00000E+000	3,20999E-001	0,00000E+000	9	...........	-32768,00
	1182	11,83	3,17863E-001	-1,90173E-004	0,00000E+000	3,17999E-001	0,00000E+000	9	...........	-32768,00
	1185	11,86	3,14853E-001	-1,86776E-004	0,00000E+000	3,14998E-001	0,00000E+000	9	...........	-32768,00
	1188	11,89	3,11868E-001	-1,83475E-004	0,00000E+000	3,11998E-001	0,00000E+000	9	...........	-32768,00
	1191	11,92	3,08869E-001	-1,80175E-004	0,00000E+000	3,08998E-001	0,00000E+000	9	...........	-32768,00
	1194	11,95	3,05849E-001	-1,76878E-004	0,00000E+000	3,05998E-001	0,00000E+000	9	...........	-32768,00
	1197	11,98	3,02861E-001	-1,73702E-004	0,00000E+000	3,02997E-001	0,00000E+000	9	...........	-32768,00
	1200	12,01	2,99866E-001	-1,70658E-004	0,00000E+000	2,99997E-001	0,00000E+000	9	...........	-32768,00
	1203	12,04	2,96869E-001	-1,67628E-004	0,00000E+000	2,96997E-001	0,00000E+000	9	...........	-32768,00
	1206	12,07	2,93853E-001	-1,64731E-004	0,00000E+000	2,93997E-001	0,00000E+000	9	...........	-32768,00
	1209	12,1	2,90848E-001	-1,61935E-004	0,00000E+000	2,90996E-001	0,00000E+000	9	...........	-32768,00
	1212	12,13	2,87853E-001	-1,59219E-004	0,00000E+000	2,87996E-001	0,00000E+000	9	...........	-32768,00
	1215	12,16	2,84856E-001	-1,56628E-004	0,00000E+000	2,84996E-001	0,00000E+000	9	...........	-32768,00
	1218	12,19	2,81858E-001	-1,54271E-004	0,00000E+000	2,81996E-001	0,00000E+000	9	...........	-32768,00
	1221	12,22	2,78848E-001	-1,51903E-004	0,00000E+000	2,78996E-001	0,00000E+000	9	...........	-32768,00
	1224	12,25	2,75845E-001	-1,49651E-004	0,00000E+000	2,75995E-001	0,00000E+000	9	...........	-32768,00
	1227	12,28	2,72861E-001	-1,47482E-004	0,00000E+000	2,72995E-001	0,00000E+000	9	...........	-32768,00
	1230	12,31	2,69864E-001	-1,45436E-004	0,00000E+000	2,69995E-001	0,00000E+000	9	...........	-32768,00
	1233	12,34	2,66844E-001	-1,43446E-004	0,00000E+000	2,66995E-001	0,00000E+000	9	...........	-32768,00
	1236	12,37	2,63853E-001	-1,41631E-004	0,00000E+000	2,63994E-001	0,00000E+000	9	...........	-32768,00
	1239	12,4	2,60848E-001	-1,39811E-004	0,00000E+000	2,60994E-001	0,00000E+000	9	...........	-32768,00
	1242	12,43	2,57855E-001	-1,38152E-004	0,00000E+000	2,57994E-001	0,00000E+000	9	...........	-32768,00
	1245	12,46	2,54846E-001	-1,36564E-004	0,00000E+000	2,55006E-001	0,00000E+000	9	...........	-32768,00
	1248	12,49	2,51845E-001	-1,35088E-004	0,00000E+000	2,52006E-001	0,00000E+000	9	...........	-32768,00
	1251	12,52	2,48845E-001	-1,33668E-004	0,00000E+000	2,49006E-001	0,00000E+000	9	...........	-32768,00
	1254	12,55	2,45858E-001	-1,32299E-004	0,00000E+000	2,46005E-001	0,00000E+000	9	...........	-32768,00
	1257	12,58	2,42838E-001	-1,30989E-004	0,00000E+000	2,43005E-001	0,00000E+000	9	...........	-32768,00
	1260	12,61	2,39851E-001	-1,29781E-004	0,00000E+000	2,40005E-001	0,00000E+000	9	...........	-32768,00
	1263	12,64	2,36843E-001	-1,28630E-004	0,00000E+000	2,37005E-001	0,00000E+000	9	...........	-32768,00
	1266	12,67	2,33856E-001	-1,27550E-004	0,00000E+000	2,34004E-001	0,00000E+000	9	...........	-32768,00
	1269	12,7	2,30855E-001	-1,26511E-004	0,00000E+000	2,31004E-001	0,00000E+000	9	...........	-32768,00
	1272	12,73	2,27849E-001	-1,25555E-004	0,00000E+000	2,28004E-001	0,00000E+000	9	...........	-32768,00
	1275	12,76	2,24843E-001	-1,24647E-004	0,00000E+000	2,25004E-001	0,00000E+000	9	...........	-32768,00
	1278	12,79	2,21867E-001	-1,23757E-004	0,00000E+000	2,22003E-001	0,00000E+000	9	...........	-32768,00
	1281	12,82	2,18860E-001	-1,22937E-004	0,00000E+000	2,19003E-001	0,00000E+000	9	...........	-32768,00
	1284	12,85	2,15853E-001	-1,22282E-004	0,00000E+000	2,16003E-001	0,00000E+000	9	...........	-32768,00
	1287	12,88	2,12838E-001	-1,21553E-004	0,00000E+000	2,13003E-001	0,00000E+000	9	...........	-32768,00
	1290	12,91	2,09848E-001	-1,20885E-004	0,00000E+000	2,10003E-001	0,00000E+000	9	...........	-32768,00
	1293	12,94	2,06851E-001	-1,20226E-004	0,00000E+000	2,07002E-001	0,00000E+000	9	...........	-32768,00
	1296	12,97	2,03836E-001	-1,19596E-004	0,00000E+000	2,04002E-001	0,00000E+000	9	...........	-32768,00
	1299	13	2,00836E-001	-1,19054E-004	0,00000E+000	2,01002E-001	0,00000E+000	9	...........	-32768,00
	1302	13,03	1,97852E-001	-1,18466E-004	0,00000E+000	1,98002E-001	0,00000E+000	9	...........	-32768,00
	1305	13,06	1,94857E-001	-1,17992E-004	0,00000E+000	1,95001E-001	0,00000E+000	9	...........	-32768,00
	1308	13,09	1,91841E-001	-1,17558E-004	0,00000E+000	1,92001E-001	0,00000E+000	9	...........	-32768,00
	1311	13,12	1,88837E-001	-1,17211E-004	0,00000E+000	1,89001E-001	0,00000E+000	9	...........	-32768,00
	1314	13,15	1,85857E-001	-1,16809E-004	0,00000E+000	1,86001E-001	0,00000E+000	9	...........	-32768,00
	1317	13,18	1,82852E-001	-1,16539E-004	0,00000E+000	1,83000E-001	0,00000E+000	9	...........	-32768,00
	1320	13,21	1,79870E-001	-1,16238E-004	0,00000E+000	1,80000E-001	0,00000E+000	9	...........	-32768,00
	1323	13,24	1,76857E-001	-1,16001E-004	0,00000E+000	1,77000E-001	0,00000E+000	9	...........	-32768,00
	1326	13,27	1,73852E-001	-1,15779E-004	0,00000E+000	1,74000E-001	0,00000E+000	9	...........	-32768,00
	1329	13,3	1,70861E-001	-1,15634E-004	0,00000E+000	1,70999E-001	0,00000E+000	9	...........	-32768,00
	1332	13,33	1,67853E-001	-1,15500E-004	0,00000E+000	1,67999E-001	0,00000E+000	9	...........	-32768,00
	1335	13,36	1,64838E-001	-1,15476E-004	0,00000E+000	1,64999E-001	0,00000E+000	9	...........	-32768,00
	1338	13,39	1,61851E-001	-1,15372E-004	0,00000E+000	1,61999E-001	0,00000E+000	9	...........	-32768,00
	1341	13,42	1,58840E-001	-1,15410E-004	0,00000E+000	1,58998E-001	0,00000E+000	9	...........	-32768,00
	1344	13,45	1,55853E-001	-1,15398E-004	0,00000E+000	1,55998E-001	0,00000E+000	9	...........	-32768,00
	1347	13,48	1,52834E-001	-1,15445E-004	0,00000E+000	1,52998E-001	0,00000E+000	9	...........	-32768,00
	1350	13,51	1,49832E-001	-1,15540E-004	0,00000E+000	1,49998E-001	0,00000E+000	9	...........	-32768,00
	1353	13,54	1,46835E-001	-1,15641E-004	0,00000E+000	1,46997E-001	0,00000E+000	9	...........	-32768,00
	1356	13,57	1,43848E-001	-1,15859E-004	0,00000E+000	1,43997E-001	0,00000E+000	9	...........	-32768,00
	1359	13,6	1,40830E-001	-1,16079E-004	0,00000E+000	1,40997E-001	0,00000E+000	9	...........	-32768,00
	1362	13,63	1,37838E-001	-1,16333E-004	0,00000E+000	1,37997E-001	0,00000E+000	9	...........	-32768,00
	1365	13,66	1,34847E-001	-1,16544E-004	0,00000E+000	1,34997E-001	0,00000E+000	9	...........	-32768,00
	1368	13,69	1,31848E-001	-1,16868E-004	0,00000E+000	1,31996E-001	0,00000E+000	9	...........	-32768,00
	1371	13,72	1,28860E-001	-1,17107E-004	0,00000E+000	1,28996E-001	0,00000E+000	9	...........	-32768,00
	1374	13,75	1,25835E-001	-1,17397E-004	0,00000E+000	1,25996E-001	0,00000E+000	9	...........	-32768,00
	1377	13,78	1,22836E-001	-1,17728E-004	0,00000E+000	1,22996E-001	0,00000E+000	9	...........	-32768,00
	1380	13,81	1,19849E-001	-1,18125E-004	0,00000E+000	1,19995E-001	0,00000E+000	9	...........	-32768,00
	1383	13,84	1,16858E-001	-1,18547E-004	0,00000E+000	1,16995E-001	0,00000E+000	9	...........	-32768,00
	1386	13,87	1,13828E-001	-1,18921E-004	0,00000E+000	1,13995E-001	0,00000E+000	9	...........	-32768,00
	1389	13,9	1,10832E-001	-1,19275E-004	0,00000E+000	1,10995E-001	0,00000E+000	9	...........	-32768,00
	1392	13,93	1,07838E-001	-1,19703E-004	0,00000E+000	1,07994E-001	0,00000E+000	9	...........	-32768,00
	1395	13,96	1,04844E-001	-1,20239E-004	0,00000E+000	1,04994E-001	0,00000E+000	9	...........	-32768,00
	1398	13,99	1,01842E-001	-1,20658E-004	0,00000E+000	1,01994E-001	0,00000E+000	9	...........	-32768,00
	1400	14,01	9,98469E-002	-1,20958E-004	0,00000E+000	1,00006E-001	0,00000E+000	9	...........	-32768,00