File: HOPG_cv/1mM/AgNO3_HOPG_1mM_3_30mv_cv.DTA
EXPLAIN
TAG	CV
TITLE	LABEL	Cyclic Voltammetry	Test &Identifier
DATE	LABEL	7/4/2022	Date
TIME	LABEL	19:04:10	Time
NOTES	NOTES	2	&Notes...
	07/04/22 , 1mM  AgNO3

PSTAT	PSTAT	IFC1000-09004	Potentiostat
VINIT	POTEN	1,00000E-001	F	Initial &E (V)
VLIMIT1	POTEN	1,00000E-001	F	Scan Limit &1 (V)
VLIMIT2	POTEN	8,00000E-001	F	Scan Limit &2 (V)
VFINAL	POTEN	1,00000E-001	F	Final &E (V)
SCANRATE	QUANT	2,99999E+001	&Scan Rate (mV/s)
STEPSIZE	QUANT	1,00000E+000	St&ep Size (mV)
CYCLES	IQUANT	1	C&ycles (#)
IMODE	SELECTOR	0	I/E Range &Mode
IRANGE	QUANT	1,00000E-005	&Max Current (mA)
AREA	QUANT	1,00000E+000	Electrode &Area (cm^2)
ELECTRODETYPE	SELECTOR	0	Electrode Type
STRIPPING	TOGGLE	F	Used for Stripping
POLARITY	TOGGLE	F	Signal Polarity
CONDIT	TWOPARAM	F	1,50000E+001	0,00000E+000	Conditionin&g	Time(s)	E(V)
DELAY	TWOPARAM	F	3,00000E+001	0,00000E+000	Init. De&lay	Time(s)	Stab.(mV/s)
EQDELAY	QUANT	1,00000E+001	Equil. &Time (s)
IRCOMP	SELECTOR	0	IRCom&p
PFCOR	QUANT	5,00000E+001	PF Corr. (ohm)
SAMPLINGMODE	SELECTOR	0	Sampling &Mode
EOC	QUANT	0	Open Circuit (V)
PSTATMODEL	IQUANT	48	Pstat Model
PSTATSECTION	LABEL	IFC1000-09004	Pstat Section
PSTATSERIALNO	LABEL	09004	Pstat Serial Number
CTRLMODE	IQUANT	1	Control Mode
ELECTROMETER	IQUANT	0	RE=0 or CS=1
IESTAB	IQUANT	2	I/E Stability
CASPEED	IQUANT	4	Control Amp Speed
CONVENTION	IQUANT	1	Current Convention
ICHRANGE	IQUANT	2	Ich Range
ICHRANGEMODE	TOGGLE	F	Ich Auto Range
ICHOFFSETENABLE	TOGGLE	F	Ich Offset Enable
ICHOFFSET	QUANT	0	Ich Offset (V)
ICHFILTER	IQUANT	3	Ich Filter
VCHRANGE	IQUANT	2	Vch Range
VCHRANGEMODE	TOGGLE	F	Vch Auto Range
VCHOFFSETENABLE	TOGGLE	F	Vch Offset Enable
VCHOFFSET	QUANT	0	Vch Offset (V)
VCHFILTER	IQUANT	3	Vch Filter
IERANGELOWERLIMIT	IQUANT	4	I/E Range Lower Limit
IERANGEMODE	TOGGLE	T	I/E AutoRange
IERANGE	IQUANT	5	I/E Range
ACHSELECT	IQUANT	0	Ach Select
ACHRANGE	IQUANT	2	Ach Range
ACHOFFSETENABLE	TOGGLE	F	Ach Offset Enable
ACHOFFSET	QUANT	0	Ach Offset (V)
ACHFILTER	IQUANT	1	Ach Filter
CABLEID	IQUANT	14	Cable ID
DCCALDATE	LABEL	3/18/2022	DC Calibration Date
ACCALDATE	LABEL	3/10/2016	AC Calibration Date
FRAMEWORKVERSION	QUANT	7,05	Framework Version
INSTRUMENTVERSION	LABEL	4.21	Instrument Version
CURVE1	TABLE
	Pt	T	Vf	Im	Vu	Sig	Ach	IERange	Over	Temp
	#	s	V vs. Ref.	A	V	V	V	#	bits	deg C
	0	0,033333	9,97968E-002	-6,92755E-006	0,00000E+000	1,00006E-001	0,00000E+000	7	...........	-32768,00
	3	0,133333	1,02800E-001	-6,77685E-006	0,00000E+000	1,02994E-001	0,00000E+000	7	...........	-32768,00
	6	0,233333	1,05903E-001	-6,67292E-006	0,00000E+000	1,05994E-001	0,00000E+000	7	...........	-32768,00
	9	0,333333	1,08705E-001	-6,60743E-006	0,00000E+000	1,08994E-001	0,00000E+000	7	...........	-32768,00
	12	0,433333	1,11908E-001	-6,54695E-006	0,00000E+000	1,11995E-001	0,00000E+000	7	...........	-32768,00
	15	0,533333	1,14711E-001	-6,45472E-006	0,00000E+000	1,14995E-001	0,00000E+000	7	...........	-32768,00
	18	0,633333	1,17814E-001	-6,38655E-006	0,00000E+000	1,17995E-001	0,00000E+000	7	...........	-32768,00
	21	0,733333	1,20817E-001	-6,29867E-006	0,00000E+000	1,20995E-001	0,00000E+000	7	...........	-32768,00
	24	0,833333	1,23720E-001	-6,23718E-006	0,00000E+000	1,23996E-001	0,00000E+000	7	...........	-32768,00
	27	0,933333	1,26823E-001	-6,16300E-006	0,00000E+000	1,26996E-001	0,00000E+000	7	...........	-32768,00
	30	1,03333	1,29826E-001	-6,10419E-006	0,00000E+000	1,29996E-001	0,00000E+000	7	...........	-32768,00
	33	1,13333	1,32829E-001	-6,06041E-006	0,00000E+000	1,32996E-001	0,00000E+000	7	...........	-32768,00
	36	1,23333	1,35831E-001	-5,98256E-006	0,00000E+000	1,35997E-001	0,00000E+000	7	...........	-32768,00
	39	1,33333	1,38834E-001	-5,93644E-006	0,00000E+000	1,38997E-001	0,00000E+000	7	...........	-32768,00
	42	1,43333	1,41837E-001	-5,88197E-006	0,00000E+000	1,41997E-001	0,00000E+000	7	...........	-32768,00
	45	1,53333	1,44840E-001	-5,83118E-006	0,00000E+000	1,44997E-001	0,00000E+000	7	...........	-32768,00
	48	1,63333	1,47843E-001	-5,78607E-006	0,00000E+000	1,47998E-001	0,00000E+000	7	...........	-32768,00
	51	1,73333	1,50746E-001	-5,73361E-006	0,00000E+000	1,50998E-001	0,00000E+000	7	...........	-32768,00
	54	1,83333	1,53849E-001	-5,70320E-006	0,00000E+000	1,53998E-001	0,00000E+000	7	...........	-32768,00
	57	1,93333	1,56852E-001	-5,64873E-006	0,00000E+000	1,56998E-001	0,00000E+000	7	...........	-32768,00
	60	2,03333	1,59855E-001	-5,61866E-006	0,00000E+000	1,59999E-001	0,00000E+000	7	...........	-32768,00
	63	2,13333	1,62857E-001	-5,57923E-006	0,00000E+000	1,62999E-001	0,00000E+000	7	...........	-32768,00
	66	2,23333	1,65760E-001	-5,53646E-006	0,00000E+000	1,65999E-001	0,00000E+000	7	...........	-32768,00
	69	2,33333	1,68763E-001	-5,49703E-006	0,00000E+000	1,68999E-001	0,00000E+000	7	...........	-32768,00
	72	2,43333	1,71766E-001	-5,46461E-006	0,00000E+000	1,71999E-001	0,00000E+000	7	...........	-32768,00
	75	2,53333	1,74769E-001	-5,43287E-006	0,00000E+000	1,75000E-001	0,00000E+000	7	...........	-32768,00
	78	2,63333	1,77772E-001	-5,39678E-006	0,00000E+000	1,78000E-001	0,00000E+000	7	...........	-32768,00
	81	2,73333	1,80775E-001	-5,36069E-006	0,00000E+000	1,81000E-001	0,00000E+000	7	...........	-32768,00
	84	2,83333	1,83778E-001	-5,33229E-006	0,00000E+000	1,84000E-001	0,00000E+000	7	...........	-32768,00
	87	2,93333	1,86881E-001	-5,29753E-006	0,00000E+000	1,87001E-001	0,00000E+000	7	...........	-32768,00
	90	3,03333	1,89783E-001	-5,25677E-006	0,00000E+000	1,90001E-001	0,00000E+000	7	...........	-32768,00
	93	3,13333	1,92686E-001	-5,23805E-006	0,00000E+000	1,93001E-001	0,00000E+000	7	...........	-32768,00
	96	3,23333	1,95889E-001	-5,20063E-006	0,00000E+000	1,96001E-001	0,00000E+000	7	...........	-32768,00
	99	3,33333	1,98692E-001	-5,19127E-006	0,00000E+000	1,99002E-001	0,00000E+000	7	...........	-32768,00
	102	3,43333	2,01695E-001	-5,16421E-006	0,00000E+000	2,02002E-001	0,00000E+000	7	...........	-32768,00
	105	3,53333	2,04798E-001	-5,14048E-006	0,00000E+000	2,05002E-001	0,00000E+000	7	...........	-32768,00
	108	3,63333	2,07901E-001	-5,11274E-006	0,00000E+000	2,08002E-001	0,00000E+000	7	...........	-32768,00
	111	3,73333	2,10803E-001	-5,07933E-006	0,00000E+000	2,11003E-001	0,00000E+000	7	...........	-32768,00
	114	3,83333	2,13806E-001	-5,05059E-006	0,00000E+000	2,14003E-001	0,00000E+000	7	...........	-32768,00
	117	3,93333	2,16709E-001	-5,03355E-006	0,00000E+000	2,17003E-001	0,00000E+000	7	...........	-32768,00
	120	4,03333	2,19812E-001	-5,01651E-006	0,00000E+000	2,20003E-001	0,00000E+000	7	...........	-32768,00
	123	4,13333	2,22915E-001	-4,96805E-006	0,00000E+000	2,23004E-001	0,00000E+000	7	...........	-32768,00
	126	4,23333	2,25918E-001	-4,94700E-006	0,00000E+000	2,26004E-001	0,00000E+000	7	...........	-32768,00
	129	4,33333	2,28821E-001	-4,92227E-006	0,00000E+000	2,29004E-001	0,00000E+000	7	...........	-32768,00
	132	4,43333	2,31824E-001	-4,89922E-006	0,00000E+000	2,32004E-001	0,00000E+000	7	...........	-32768,00
	135	4,53333	2,34827E-001	-4,88284E-006	0,00000E+000	2,35005E-001	0,00000E+000	7	...........	-32768,00
	138	4,63333	2,37930E-001	-4,85778E-006	0,00000E+000	2,38005E-001	0,00000E+000	7	...........	-32768,00
	141	4,73333	2,40832E-001	-4,82804E-006	0,00000E+000	2,41005E-001	0,00000E+000	7	...........	-32768,00
	144	4,83333	2,43835E-001	-4,81301E-006	0,00000E+000	2,44005E-001	0,00000E+000	7	...........	-32768,00
	147	4,93333	2,46738E-001	-4,78360E-006	0,00000E+000	2,47005E-001	0,00000E+000	7	...........	-32768,00
	150	5,03333	2,49741E-001	-4,77558E-006	0,00000E+000	2,50006E-001	0,00000E+000	7	...........	-32768,00
	153	5,13333	2,52844E-001	-4,74851E-006	0,00000E+000	2,53006E-001	0,00000E+000	7	...........	-32768,00
	156	5,23333	2,55747E-001	-4,72278E-006	0,00000E+000	2,56006E-001	0,00000E+000	7	...........	-32768,00
	159	5,33333	2,58750E-001	-4,70441E-006	0,00000E+000	2,58994E-001	0,00000E+000	7	...........	-32768,00
	162	5,43333	2,61853E-001	-4,68603E-006	0,00000E+000	2,61994E-001	0,00000E+000	7	...........	-32768,00
	165	5,53333	2,64855E-001	-4,65629E-006	0,00000E+000	2,64994E-001	0,00000E+000	7	...........	-32768,00
	168	5,63333	2,67858E-001	-4,63624E-006	0,00000E+000	2,67995E-001	0,00000E+000	7	...........	-32768,00
	171	5,73333	2,70761E-001	-4,62554E-006	0,00000E+000	2,70995E-001	0,00000E+000	7	...........	-32768,00
	174	5,83333	2,73764E-001	-4,59948E-006	0,00000E+000	2,73995E-001	0,00000E+000	7	...........	-32768,00
	177	5,93333	2,76867E-001	-4,57542E-006	0,00000E+000	2,76995E-001	0,00000E+000	7	...........	-32768,00
	180	6,03333	2,79770E-001	-4,55403E-006	0,00000E+000	2,79996E-001	0,00000E+000	7	...........	-32768,00
	183	6,13333	2,82873E-001	-4,52597E-006	0,00000E+000	2,82996E-001	0,00000E+000	7	...........	-32768,00
	186	6,23333	2,85876E-001	-4,50024E-006	0,00000E+000	2,85996E-001	0,00000E+000	7	...........	-32768,00
	189	6,33333	2,88879E-001	-4,47250E-006	0,00000E+000	2,88996E-001	0,00000E+000	7	...........	-32768,00
	192	6,43333	2,91781E-001	-4,44911E-006	0,00000E+000	2,91997E-001	0,00000E+000	7	...........	-32768,00
	195	6,53333	2,94784E-001	-4,41770E-006	0,00000E+000	2,94997E-001	0,00000E+000	7	...........	-32768,00
	198	6,63333	2,97787E-001	-4,38696E-006	0,00000E+000	2,97997E-001	0,00000E+000	7	...........	-32768,00
	201	6,73333	3,00890E-001	-4,35755E-006	0,00000E+000	3,00997E-001	0,00000E+000	7	...........	-32768,00
	204	6,83333	3,03893E-001	-4,32781E-006	0,00000E+000	3,03998E-001	0,00000E+000	7	...........	-32768,00
	207	6,93333	3,06796E-001	-4,28972E-006	0,00000E+000	3,06998E-001	0,00000E+000	7	...........	-32768,00
	210	7,03333	3,09698E-001	-4,25730E-006	0,00000E+000	3,09998E-001	0,00000E+000	7	...........	-32768,00
	213	7,13333	3,12801E-001	-4,22155E-006	0,00000E+000	3,12998E-001	0,00000E+000	7	...........	-32768,00
	216	7,23333	3,15804E-001	-4,19081E-006	0,00000E+000	3,15998E-001	0,00000E+000	7	...........	-32768,00
	219	7,33333	3,18707E-001	-4,15672E-006	0,00000E+000	3,18999E-001	0,00000E+000	7	...........	-32768,00
	222	7,43333	3,21810E-001	-4,11194E-006	0,00000E+000	3,21999E-001	0,00000E+000	7	...........	-32768,00
	225	7,53333	3,24913E-001	-4,06516E-006	0,00000E+000	3,24999E-001	0,00000E+000	7	...........	-32768,00
	228	7,63333	3,27816E-001	-4,02607E-006	0,00000E+000	3,27999E-001	0,00000E+000	7	...........	-32768,00
	231	7,73333	3,30919E-001	-3,96792E-006	0,00000E+000	3,31000E-001	0,00000E+000	7	...........	-32768,00
	234	7,83333	3,33822E-001	-3,91479E-006	0,00000E+000	3,34000E-001	0,00000E+000	7	...........	-32768,00
	237	7,93333	3,36825E-001	-3,84562E-006	0,00000E+000	3,37000E-001	0,00000E+000	7	...........	-32768,00
	240	8,03333	3,39827E-001	-3,79015E-006	0,00000E+000	3,40000E-001	0,00000E+000	7	...........	-32768,00
	243	8,13333	3,42830E-001	-3,73067E-006	0,00000E+000	3,43001E-001	0,00000E+000	7	...........	-32768,00
	246	8,23333	3,45833E-001	-3,66852E-006	0,00000E+000	3,46001E-001	0,00000E+000	7	...........	-32768,00
	249	8,33333	3,48836E-001	-3,58665E-006	0,00000E+000	3,49001E-001	0,00000E+000	7	...........	-32768,00
	252	8,43333	3,51739E-001	-3,52049E-006	0,00000E+000	3,52001E-001	0,00000E+000	7	...........	-32768,00
	255	8,53333	3,54842E-001	-3,42191E-006	0,00000E+000	3,55002E-001	0,00000E+000	7	...........	-32768,00
	258	8,63333	3,57845E-001	-3,32768E-006	0,00000E+000	3,58002E-001	0,00000E+000	7	...........	-32768,00
	261	8,73333	3,60848E-001	-3,22777E-006	0,00000E+000	3,61002E-001	0,00000E+000	7	...........	-32768,00
	264	8,83333	3,63851E-001	-3,11282E-006	0,00000E+000	3,64002E-001	0,00000E+000	7	...........	-32768,00
	267	8,93333	3,66853E-001	-3,00756E-006	0,00000E+000	3,67003E-001	0,00000E+000	7	...........	-32768,00
	270	9,03333	3,69756E-001	-2,88592E-006	0,00000E+000	3,70003E-001	0,00000E+000	7	...........	-32768,00
	273	9,13333	3,72859E-001	-2,74725E-006	0,00000E+000	3,73003E-001	0,00000E+000	7	...........	-32768,00
	276	9,23333	3,75762E-001	-2,61927E-006	0,00000E+000	3,76003E-001	0,00000E+000	7	...........	-32768,00
	279	9,33333	3,78865E-001	-2,47190E-006	0,00000E+000	3,79004E-001	0,00000E+000	7	...........	-32768,00
	282	9,43333	3,81768E-001	-2,30349E-006	0,00000E+000	3,82004E-001	0,00000E+000	7	...........	-32768,00
	285	9,5333	3,84871E-001	-2,13073E-006	0,00000E+000	3,85004E-001	0,00000E+000	7	...........	-32768,00
	288	9,6333	3,87774E-001	-1,96465E-006	0,00000E+000	3,88004E-001	0,00000E+000	7	...........	-32768,00
	291	9,7333	3,90877E-001	-1,79122E-006	0,00000E+000	3,91005E-001	0,00000E+000	7	...........	-32768,00
	294	9,8333	3,93879E-001	-1,59741E-006	0,00000E+000	3,94005E-001	0,00000E+000	7	...........	-32768,00
	297	9,9333	3,96782E-001	-1,40227E-006	0,00000E+000	3,97005E-001	0,00000E+000	7	...........	-32768,00
	300	10,0333	3,99785E-001	-1,21781E-006	0,00000E+000	4,00005E-001	0,00000E+000	7	...........	-32768,00
	303	10,1333	4,02788E-001	-1,00328E-006	0,00000E+000	4,03005E-001	0,00000E+000	7	...........	-32768,00
	306	10,2333	4,05891E-001	-8,00784E-007	0,00000E+000	4,06006E-001	0,00000E+000	7	...........	-32768,00
	309	10,3333	4,08794E-001	-5,92938E-007	0,00000E+000	4,09006E-001	0,00000E+000	7	...........	-32768,00
	312	10,4333	4,11897E-001	-3,94449E-007	0,00000E+000	4,12006E-001	0,00000E+000	7	...........	-32768,00
	315	10,5333	4,14799E-001	-1,91950E-007	0,00000E+000	4,14994E-001	0,00000E+000	7	...........	-32768,00
	318	10,6333	4,17802E-001	6,87383E-009	0,00000E+000	4,17994E-001	0,00000E+000	7	...........	-32768,00
	321	10,7333	4,20805E-001	2,06366E-007	0,00000E+000	4,20994E-001	0,00000E+000	7	...........	-32768,00
	324	10,8333	4,23808E-001	3,96167E-007	0,00000E+000	4,23995E-001	0,00000E+000	7	...........	-32768,00
	327	10,9333	4,26811E-001	5,77948E-007	0,00000E+000	4,26995E-001	0,00000E+000	7	...........	-32768,00
	330	11,0333	4,29814E-001	7,65410E-007	0,00000E+000	4,29995E-001	0,00000E+000	7	...........	-32768,00
	333	11,1333	4,32817E-001	9,64568E-007	0,00000E+000	4,32995E-001	0,00000E+000	7	...........	-32768,00
	336	11,2333	4,35820E-001	1,16707E-006	0,00000E+000	4,35996E-001	0,00000E+000	7	...........	-32768,00
	339	11,3333	4,38823E-001	1,36054E-006	0,00000E+000	4,38996E-001	0,00000E+000	7	...........	-32768,00
	342	11,4333	4,41825E-001	1,58944E-006	0,00000E+000	4,41996E-001	0,00000E+000	7	...........	-32768,00
	345	11,5333	4,44828E-001	1,83104E-006	0,00000E+000	4,44996E-001	0,00000E+000	7	...........	-32768,00
	348	11,6333	4,47831E-001	2,09903E-006	0,00000E+000	4,47997E-001	0,00000E+000	7	...........	-32768,00
	351	11,7333	4,50834E-001	2,37103E-006	0,00000E+000	4,50997E-001	0,00000E+000	7	...........	-32768,00
	354	11,8333	4,53737E-001	2,69717E-006	0,00000E+000	4,53997E-001	0,00000E+000	7	...........	-32768,00
	357	11,9333	4,56840E-001	3,04002E-006	0,00000E+000	4,56997E-001	0,00000E+000	7	...........	-32768,00
	360	12,0333	4,59843E-001	3,41360E-006	0,00000E+000	4,59998E-001	0,00000E+000	7	...........	-32768,00
	363	12,1333	4,62846E-001	3,84199E-006	0,00000E+000	4,62998E-001	0,00000E+000	7	...........	-32768,00
	366	12,2333	4,65849E-001	4,28575E-006	0,00000E+000	4,65998E-001	0,00000E+000	7	...........	-32768,00
	369	12,3333	4,68851E-001	4,80537E-006	0,00000E+000	4,68998E-001	0,00000E+000	7	...........	-32768,00
	372	12,4333	4,71854E-001	5,35071E-006	0,00000E+000	4,71999E-001	0,00000E+000	7	...........	-32768,00
	375	12,5333	4,74857E-001	5,96489E-006	0,00000E+000	4,74999E-001	0,00000E+000	7	...........	-32768,00
	378	12,6333	4,77760E-001	6,61483E-006	0,00000E+000	4,77999E-001	0,00000E+000	7	...........	-32768,00
	381	12,7333	4,80863E-001	7,33727E-006	0,00000E+000	4,80999E-001	0,00000E+000	7	...........	-32768,00
	384	12,8333	4,83866E-001	8,12355E-006	0,00000E+000	4,83999E-001	0,00000E+000	7	...........	-32768,00
	387	12,9333	4,86869E-001	8,96529E-006	0,00000E+000	4,87000E-001	0,00000E+000	7	...........	-32768,00
	390	13,0333	4,89771E-001	9,87712E-006	0,00000E+000	4,90000E-001	0,00000E+000	8	...........	-32768,00
	393	13,1333	4,92874E-001	1,08526E-005	0,00000E+000	4,93000E-001	0,00000E+000	8	...........	-32768,00
	396	13,2333	4,95777E-001	1,19049E-005	0,00000E+000	4,96000E-001	0,00000E+000	8	...........	-32768,00
	399	13,3333	4,98780E-001	1,30174E-005	0,00000E+000	4,99001E-001	0,00000E+000	8	...........	-32768,00
	402	13,4333	5,01883E-001	1,42067E-005	0,00000E+000	5,02001E-001	0,00000E+000	8	...........	-32768,00
	405	13,5333	5,04786E-001	1,54695E-005	0,00000E+000	5,05001E-001	0,00000E+000	8	...........	-32768,00
	408	13,6333	5,07889E-001	1,67991E-005	0,00000E+000	5,08001E-001	0,00000E+000	8	...........	-32768,00
	411	13,7333	5,10892E-001	1,82457E-005	0,00000E+000	5,11002E-001	0,00000E+000	8	...........	-32768,00
	414	13,8333	5,13895E-001	1,97390E-005	0,00000E+000	5,14002E-001	0,00000E+000	8	...........	-32768,00
	417	13,9333	5,16798E-001	2,13191E-005	0,00000E+000	5,17002E-001	0,00000E+000	8	...........	-32768,00
	420	14,0333	5,20001E-001	2,30229E-005	0,00000E+000	5,20002E-001	0,00000E+000	8	...........	-32768,00
	423	14,1333	5,22903E-001	2,47768E-005	0,00000E+000	5,23003E-001	0,00000E+000	8	...........	-32768,00
	426	14,2333	5,25906E-001	2,66376E-005	0,00000E+000	5,26003E-001	0,00000E+000	8	...........	-32768,00
	429	14,3333	5,28909E-001	2,85953E-005	0,00000E+000	5,29003E-001	0,00000E+000	8	...........	-32768,00
	432	14,4333	5,31812E-001	3,06765E-005	0,00000E+000	5,32003E-001	0,00000E+000	8	...........	-32768,00
	435	14,5333	5,34815E-001	3,28213E-005	0,00000E+000	5,35004E-001	0,00000E+000	8	...........	-32768,00
	438	14,6333	5,37918E-001	3,50663E-005	0,00000E+000	5,38004E-001	0,00000E+000	8	...........	-32768,00
	441	14,7333	5,40921E-001	3,74282E-005	0,00000E+000	5,41004E-001	0,00000E+000	8	...........	-32768,00
	444	14,8333	5,43823E-001	3,98669E-005	0,00000E+000	5,44004E-001	0,00000E+000	8	...........	-32768,00
	447	14,9333	5,46926E-001	4,24092E-005	0,00000E+000	5,47005E-001	0,00000E+000	8	...........	-32768,00
	450	15,0333	5,49829E-001	4,50684E-005	0,00000E+000	5,50005E-001	0,00000E+000	8	...........	-32768,00
	453	15,1333	5,52932E-001	4,77945E-005	0,00000E+000	5,53005E-001	0,00000E+000	8	...........	-32768,00
	456	15,2333	5,55935E-001	5,06107E-005	0,00000E+000	5,56005E-001	0,00000E+000	8	...........	-32768,00
	459	15,3333	5,58938E-001	5,35138E-005	0,00000E+000	5,59005E-001	0,00000E+000	8	...........	-32768,00
	462	15,4333	5,61841E-001	5,64670E-005	0,00000E+000	5,62006E-001	0,00000E+000	8	...........	-32768,00
	465	15,5333	5,64844E-001	5,94904E-005	0,00000E+000	5,65006E-001	0,00000E+000	8	...........	-32768,00
	468	15,6333	5,67847E-001	6,25371E-005	0,00000E+000	5,68006E-001	0,00000E+000	8	...........	-32768,00
	471	15,7333	5,70849E-001	6,56206E-005	0,00000E+000	5,70994E-001	0,00000E+000	8	...........	-32768,00
	474	15,8333	5,73852E-001	6,87542E-005	0,00000E+000	5,73994E-001	0,00000E+000	8	...........	-32768,00
	477	15,9333	5,76755E-001	7,18411E-005	0,00000E+000	5,76994E-001	0,00000E+000	8	...........	-32768,00
	480	16,0333	5,79858E-001	7,49246E-005	0,00000E+000	5,79995E-001	0,00000E+000	8	...........	-32768,00
	483	16,1333	5,82861E-001	7,79580E-005	0,00000E+000	5,82995E-001	0,00000E+000	8	...........	-32768,00
	486	16,2333	5,85764E-001	8,08811E-005	0,00000E+000	5,85995E-001	0,00000E+000	8	...........	-32768,00
	489	16,3333	5,88867E-001	8,37174E-005	0,00000E+000	5,88995E-001	0,00000E+000	8	...........	-32768,00
	492	16,4333	5,91770E-001	8,64267E-005	0,00000E+000	5,91996E-001	0,00000E+000	8	...........	-32768,00
	495	16,5333	5,94872E-001	8,88254E-005	0,00000E+000	5,94996E-001	0,00000E+000	8	...........	-32768,00
	498	16,6333	5,97875E-001	9,08474E-005	0,00000E+000	5,97996E-001	0,00000E+000	9	...........	-32768,00
	501	16,7333	6,00878E-001	9,26833E-005	0,00000E+000	6,00996E-001	0,00000E+000	9	...........	-32768,00
	504	16,8333	6,03981E-001	9,38850E-005	0,00000E+000	6,03997E-001	0,00000E+000	9	...........	-32768,00
	507	16,9333	6,06784E-001	9,45860E-005	0,00000E+000	6,06997E-001	0,00000E+000	9	...........	-32768,00
	510	17,0333	6,09787E-001	9,44525E-005	0,00000E+000	6,09997E-001	0,00000E+000	9	...........	-32768,00
	513	17,1333	6,12890E-001	9,32508E-005	0,00000E+000	6,12997E-001	0,00000E+000	9	...........	-32768,00
	516	17,2333	6,15893E-001	9,07139E-005	0,00000E+000	6,15998E-001	0,00000E+000	9	...........	-32768,00
	519	17,3333	6,18896E-001	8,66081E-005	0,00000E+000	6,18998E-001	0,00000E+000	9	...........	-32768,00
	522	17,4333	6,21898E-001	8,11671E-005	0,00000E+000	6,21998E-001	0,00000E+000	9	...........	-32768,00
	525	17,5333	6,24901E-001	7,39090E-005	0,00000E+000	6,24998E-001	0,00000E+000	8	...........	-32768,00
	528	17,6333	6,27804E-001	6,35962E-005	0,00000E+000	6,27999E-001	0,00000E+000	8	...........	-32768,00
	531	17,7333	6,30907E-001	4,86931E-005	0,00000E+000	6,30999E-001	0,00000E+000	8	...........	-32768,00
	534	17,8333	6,33910E-001	3,14082E-005	0,00000E+000	6,33999E-001	0,00000E+000	8	...........	-32768,00
	537	17,9333	6,36913E-001	2,42790E-005	0,00000E+000	6,36999E-001	0,00000E+000	8	...........	-32768,00
	540	18,0333	6,39916E-001	2,02468E-005	0,00000E+000	6,40000E-001	0,00000E+000	8	...........	-32768,00
	543	18,1333	6,42919E-001	1,75675E-005	0,00000E+000	6,43000E-001	0,00000E+000	8	...........	-32768,00
	546	18,2333	6,45821E-001	1,56900E-005	0,00000E+000	6,46000E-001	0,00000E+000	8	...........	-32768,00
	549	18,3333	6,48924E-001	1,42668E-005	0,00000E+000	6,49000E-001	0,00000E+000	8	...........	-32768,00
	552	18,4333	6,51827E-001	1,31677E-005	0,00000E+000	6,52000E-001	0,00000E+000	8	...........	-32768,00
	555	18,5333	6,54830E-001	1,22791E-005	0,00000E+000	6,55001E-001	0,00000E+000	8	...........	-32768,00
	558	18,6333	6,57833E-001	1,14807E-005	0,00000E+000	6,58001E-001	0,00000E+000	8	...........	-32768,00
	561	18,7333	6,60936E-001	1,08326E-005	0,00000E+000	6,61001E-001	0,00000E+000	8	...........	-32768,00
	564	18,8333	6,63939E-001	1,02880E-005	0,00000E+000	6,64001E-001	0,00000E+000	8	...........	-32768,00
	567	18,9333	6,66942E-001	9,80697E-006	0,00000E+000	6,67002E-001	0,00000E+000	8	...........	-32768,00
	570	19,0333	6,69945E-001	9,36265E-006	0,00000E+000	6,70002E-001	0,00000E+000	8	...........	-32768,00
	573	19,1333	6,72947E-001	8,99851E-006	0,00000E+000	6,73002E-001	0,00000E+000	8	...........	-32768,00
	576	19,2333	6,75950E-001	8,68782E-006	0,00000E+000	6,76002E-001	0,00000E+000	8	...........	-32768,00
	579	19,3333	6,78853E-001	8,38047E-006	0,00000E+000	6,79003E-001	0,00000E+000	8	...........	-32768,00
	582	19,4333	6,81956E-001	8,10653E-006	0,00000E+000	6,82003E-001	0,00000E+000	8	...........	-32768,00
	585	19,5333	6,84959E-001	7,88228E-006	0,00000E+000	6,85003E-001	0,00000E+000	7	...........	-32768,00
	588	19,6333	6,87862E-001	7,66842E-006	0,00000E+000	6,88003E-001	0,00000E+000	7	...........	-32768,00
	591	19,7333	6,90865E-001	7,46125E-006	0,00000E+000	6,91004E-001	0,00000E+000	7	...........	-32768,00
	594	19,8333	6,93868E-001	7,26376E-006	0,00000E+000	6,94004E-001	0,00000E+000	7	...........	-32768,00
	597	19,9333	6,96871E-001	7,10771E-006	0,00000E+000	6,97004E-001	0,00000E+000	7	...........	-32768,00
	600	20,0333	6,99873E-001	6,94464E-006	0,00000E+000	7,00004E-001	0,00000E+000	7	...........	-32768,00
	603	20,1333	7,02876E-001	6,80196E-006	0,00000E+000	7,03005E-001	0,00000E+000	7	...........	-32768,00
	606	20,2333	7,05879E-001	6,66863E-006	0,00000E+000	7,06005E-001	0,00000E+000	7	...........	-32768,00
	609	20,3333	7,08882E-001	6,53129E-006	0,00000E+000	7,09005E-001	0,00000E+000	7	...........	-32768,00
	612	20,4333	7,11885E-001	6,41701E-006	0,00000E+000	7,12005E-001	0,00000E+000	7	...........	-32768,00
	615	20,5333	7,14788E-001	6,31442E-006	0,00000E+000	7,15006E-001	0,00000E+000	7	...........	-32768,00
	618	20,6333	7,17891E-001	6,20849E-006	0,00000E+000	7,18006E-001	0,00000E+000	7	...........	-32768,00
	621	20,7333	7,20894E-001	6,08452E-006	0,00000E+000	7,21006E-001	0,00000E+000	7	...........	-32768,00
	624	20,8333	7,23896E-001	6,00900E-006	0,00000E+000	7,24006E-001	0,00000E+000	7	...........	-32768,00
	627	20,9333	7,26899E-001	5,92112E-006	0,00000E+000	7,26994E-001	0,00000E+000	7	...........	-32768,00
	630	21,0333	7,29902E-001	5,82922E-006	0,00000E+000	7,29994E-001	0,00000E+000	7	...........	-32768,00
	633	21,1333	7,33105E-001	5,76039E-006	0,00000E+000	7,32994E-001	0,00000E+000	7	...........	-32768,00
	636	21,2333	7,35908E-001	5,69590E-006	0,00000E+000	7,35995E-001	0,00000E+000	7	...........	-32768,00
	639	21,3333	7,38911E-001	5,62739E-006	0,00000E+000	7,38995E-001	0,00000E+000	7	...........	-32768,00
	642	21,4333	7,41914E-001	5,55655E-006	0,00000E+000	7,41995E-001	0,00000E+000	7	...........	-32768,00
	645	21,5333	7,44917E-001	5,50108E-006	0,00000E+000	7,44995E-001	0,00000E+000	7	...........	-32768,00
	648	21,6333	7,47920E-001	5,42890E-006	0,00000E+000	7,47996E-001	0,00000E+000	7	...........	-32768,00
	651	21,7333	7,50922E-001	5,37811E-006	0,00000E+000	7,50996E-001	0,00000E+000	7	...........	-32768,00
	654	21,8333	7,53925E-001	5,33534E-006	0,00000E+000	7,53996E-001	0,00000E+000	7	...........	-32768,00
	657	21,9333	7,56928E-001	5,26316E-006	0,00000E+000	7,56996E-001	0,00000E+000	7	...........	-32768,00
	660	22,0333	7,59931E-001	5,21705E-006	0,00000E+000	7,59997E-001	0,00000E+000	7	...........	-32768,00
	663	22,1333	7,62934E-001	5,17929E-006	0,00000E+000	7,62997E-001	0,00000E+000	7	...........	-32768,00
	666	22,2333	7,65937E-001	5,13652E-006	0,00000E+000	7,65997E-001	0,00000E+000	7	...........	-32768,00
	669	22,3333	7,68840E-001	5,09408E-006	0,00000E+000	7,68997E-001	0,00000E+000	7	...........	-32768,00
	672	22,4333	7,71943E-001	5,04629E-006	0,00000E+000	7,71998E-001	0,00000E+000	7	...........	-32768,00
	675	22,5333	7,74945E-001	5,00085E-006	0,00000E+000	7,74998E-001	0,00000E+000	7	...........	-32768,00
	678	22,6333	7,77948E-001	4,96509E-006	0,00000E+000	7,77998E-001	0,00000E+000	7	...........	-32768,00
	681	22,7333	7,80951E-001	4,93235E-006	0,00000E+000	7,80998E-001	0,00000E+000	7	...........	-32768,00
	684	22,8333	7,83954E-001	4,91397E-006	0,00000E+000	7,83999E-001	0,00000E+000	7	...........	-32768,00
	687	22,9333	7,87057E-001	4,86719E-006	0,00000E+000	7,86999E-001	0,00000E+000	7	...........	-32768,00
	690	23,0333	7,89960E-001	4,83010E-006	0,00000E+000	7,89999E-001	0,00000E+000	7	...........	-32768,00
	693	23,1333	7,92963E-001	4,81640E-006	0,00000E+000	7,92999E-001	0,00000E+000	7	...........	-32768,00
	696	23,2333	7,95866E-001	4,77696E-006	0,00000E+000	7,96000E-001	0,00000E+000	7	...........	-32768,00
	699	23,3333	7,98969E-001	4,74054E-006	0,00000E+000	7,99000E-001	0,00000E+000	7	...........	-32768,00
	702	23,4333	7,97968E-001	4,58750E-006	0,00000E+000	7,98000E-001	0,00000E+000	7	...........	-32768,00
	705	23,5333	7,94965E-001	4,40839E-006	0,00000E+000	7,94999E-001	0,00000E+000	7	...........	-32768,00
	708	23,6333	7,91862E-001	4,25835E-006	0,00000E+000	7,91999E-001	0,00000E+000	7	...........	-32768,00
	711	23,7333	7,88959E-001	4,10297E-006	0,00000E+000	7,88999E-001	0,00000E+000	7	...........	-32768,00
	714	23,8333	7,86056E-001	3,95460E-006	0,00000E+000	7,85999E-001	0,00000E+000	7	...........	-32768,00
	717	23,9333	7,82853E-001	3,82996E-006	0,00000E+000	7,82998E-001	0,00000E+000	7	...........	-32768,00
	720	24,0333	7,79850E-001	3,71267E-006	0,00000E+000	7,79998E-001	0,00000E+000	7	...........	-32768,00
	723	24,1333	7,76947E-001	3,59973E-006	0,00000E+000	7,76998E-001	0,00000E+000	7	...........	-32768,00
	726	24,2333	7,73944E-001	3,49681E-006	0,00000E+000	7,73998E-001	0,00000E+000	7	...........	-32768,00
	729	24,3333	7,70942E-001	3,38654E-006	0,00000E+000	7,70998E-001	0,00000E+000	7	...........	-32768,00
	732	24,4333	7,67939E-001	3,30500E-006	0,00000E+000	7,67997E-001	0,00000E+000	7	...........	-32768,00
	735	24,5333	7,64936E-001	3,21679E-006	0,00000E+000	7,64997E-001	0,00000E+000	7	...........	-32768,00
	738	24,6333	7,61933E-001	3,12589E-006	0,00000E+000	7,61997E-001	0,00000E+000	7	...........	-32768,00
	741	24,7333	7,58930E-001	3,02331E-006	0,00000E+000	7,58997E-001	0,00000E+000	7	...........	-32768,00
	744	24,8333	7,55927E-001	2,95080E-006	0,00000E+000	7,55996E-001	0,00000E+000	7	...........	-32768,00
	747	24,9333	7,52824E-001	2,87194E-006	0,00000E+000	7,52996E-001	0,00000E+000	7	...........	-32768,00
	750	25,0333	7,49921E-001	2,81780E-006	0,00000E+000	7,49996E-001	0,00000E+000	7	...........	-32768,00
	753	25,1333	7,46919E-001	2,74997E-006	0,00000E+000	7,46996E-001	0,00000E+000	7	...........	-32768,00
	756	25,2333	7,43916E-001	2,66275E-006	0,00000E+000	7,43995E-001	0,00000E+000	7	...........	-32768,00
	759	25,3333	7,40913E-001	2,60127E-006	0,00000E+000	7,40995E-001	0,00000E+000	7	...........	-32768,00
	762	25,4333	7,37810E-001	2,53811E-006	0,00000E+000	7,37995E-001	0,00000E+000	7	...........	-32768,00
	765	25,5333	7,35007E-001	2,47596E-006	0,00000E+000	7,34995E-001	0,00000E+000	7	...........	-32768,00
	768	25,6333	7,32004E-001	2,42249E-006	0,00000E+000	7,31994E-001	0,00000E+000	7	...........	-32768,00
	771	25,7333	7,28901E-001	2,36068E-006	0,00000E+000	7,28994E-001	0,00000E+000	7	...........	-32768,00
	774	25,8333	7,25898E-001	2,31389E-006	0,00000E+000	7,25994E-001	0,00000E+000	7	...........	-32768,00
	777	25,9333	7,22896E-001	2,26243E-006	0,00000E+000	7,23006E-001	0,00000E+000	7	...........	-32768,00
	780	26,0333	7,19993E-001	2,21298E-006	0,00000E+000	7,20006E-001	0,00000E+000	7	...........	-32768,00
	783	26,1333	7,16790E-001	2,15951E-006	0,00000E+000	7,17006E-001	0,00000E+000	7	...........	-32768,00
	786	26,2333	7,13887E-001	2,11373E-006	0,00000E+000	7,14005E-001	0,00000E+000	7	...........	-32768,00
	789	26,3333	7,10984E-001	2,06361E-006	0,00000E+000	7,11005E-001	0,00000E+000	7	...........	-32768,00
	792	26,4333	7,07881E-001	2,01516E-006	0,00000E+000	7,08005E-001	0,00000E+000	7	...........	-32768,00
	795	26,5333	7,04878E-001	1,98241E-006	0,00000E+000	7,05005E-001	0,00000E+000	7	...........	-32768,00
	798	26,6333	7,01875E-001	1,94365E-006	0,00000E+000	7,02004E-001	0,00000E+000	7	...........	-32768,00
	801	26,7333	6,98872E-001	1,89352E-006	0,00000E+000	6,99004E-001	0,00000E+000	7	...........	-32768,00
	804	26,8333	6,95870E-001	1,84474E-006	0,00000E+000	6,96004E-001	0,00000E+000	7	...........	-32768,00
	807	26,9333	6,92867E-001	1,81867E-006	0,00000E+000	6,93004E-001	0,00000E+000	7	...........	-32768,00
	810	27,0333	6,89864E-001	1,78359E-006	0,00000E+000	6,90004E-001	0,00000E+000	7	...........	-32768,00
	813	27,1333	6,86961E-001	1,75752E-006	0,00000E+000	6,87003E-001	0,00000E+000	7	...........	-32768,00
	816	27,2333	6,83858E-001	1,69203E-006	0,00000E+000	6,84003E-001	0,00000E+000	7	...........	-32768,00
	819	27,3333	6,80855E-001	1,68000E-006	0,00000E+000	6,81003E-001	0,00000E+000	7	...........	-32768,00
	822	27,4333	6,77952E-001	1,64023E-006	0,00000E+000	6,78003E-001	0,00000E+000	7	...........	-32768,00
	825	27,5333	6,74849E-001	1,60281E-006	0,00000E+000	6,75002E-001	0,00000E+000	7	...........	-32768,00
	828	27,6333	6,71947E-001	1,57240E-006	0,00000E+000	6,72002E-001	0,00000E+000	7	...........	-32768,00
	831	27,7333	6,68844E-001	1,54433E-006	0,00000E+000	6,69002E-001	0,00000E+000	7	...........	-32768,00
	834	27,8333	6,65941E-001	1,50824E-006	0,00000E+000	6,66002E-001	0,00000E+000	7	...........	-32768,00
	837	27,9333	6,62838E-001	1,47516E-006	0,00000E+000	6,63001E-001	0,00000E+000	7	...........	-32768,00
	840	28,0333	6,59835E-001	1,44074E-006	0,00000E+000	6,60001E-001	0,00000E+000	7	...........	-32768,00
	843	28,1333	6,56832E-001	1,42236E-006	0,00000E+000	6,57001E-001	0,00000E+000	7	...........	-32768,00
	846	28,2333	6,53829E-001	1,38728E-006	0,00000E+000	6,54001E-001	0,00000E+000	7	...........	-32768,00
	849	28,3333	6,50826E-001	1,35419E-006	0,00000E+000	6,51000E-001	0,00000E+000	7	...........	-32768,00
	852	28,4333	6,47723E-001	1,32913E-006	0,00000E+000	6,48000E-001	0,00000E+000	7	...........	-32768,00
	855	28,5333	6,44820E-001	1,29872E-006	0,00000E+000	6,45000E-001	0,00000E+000	7	...........	-32768,00
	858	28,6333	6,41918E-001	1,27166E-006	0,00000E+000	6,42000E-001	0,00000E+000	7	...........	-32768,00
	861	28,7333	6,38815E-001	1,23791E-006	0,00000E+000	6,38999E-001	0,00000E+000	7	...........	-32768,00
	864	28,8333	6,35812E-001	1,21786E-006	0,00000E+000	6,35999E-001	0,00000E+000	7	...........	-32768,00
	867	28,9333	6,32909E-001	1,18344E-006	0,00000E+000	6,32999E-001	0,00000E+000	7	...........	-32768,00
	870	29,0333	6,29906E-001	1,16239E-006	0,00000E+000	6,29999E-001	0,00000E+000	7	...........	-32768,00
	873	29,1333	6,26903E-001	1,13699E-006	0,00000E+000	6,26998E-001	0,00000E+000	7	...........	-32768,00
	876	29,2333	6,23800E-001	1,11427E-006	0,00000E+000	6,23998E-001	0,00000E+000	7	...........	-32768,00
	879	29,3333	6,20998E-001	1,08219E-006	0,00000E+000	6,20998E-001	0,00000E+000	7	...........	-32768,00
	882	29,4333	6,17795E-001	1,05379E-006	0,00000E+000	6,17998E-001	0,00000E+000	7	...........	-32768,00
	885	29,5333	6,14992E-001	1,03574E-006	0,00000E+000	6,14998E-001	0,00000E+000	7	...........	-32768,00
	888	29,6333	6,11889E-001	1,00734E-006	0,00000E+000	6,11997E-001	0,00000E+000	7	...........	-32768,00
	891	29,7333	6,08786E-001	9,85620E-007	0,00000E+000	6,08997E-001	0,00000E+000	7	...........	-32768,00
	894	29,8333	6,05983E-001	9,58219E-007	0,00000E+000	6,05997E-001	0,00000E+000	7	...........	-32768,00
	897	29,9333	6,02980E-001	9,32154E-007	0,00000E+000	6,02997E-001	0,00000E+000	7	...........	-32768,00
	900	30,0333	5,99977E-001	9,11437E-007	0,00000E+000	5,99996E-001	0,00000E+000	7	...........	-32768,00
	903	30,1333	5,96874E-001	8,82699E-007	0,00000E+000	5,96996E-001	0,00000E+000	7	...........	-32768,00
	906	30,2333	5,93872E-001	8,52959E-007	0,00000E+000	5,93996E-001	0,00000E+000	7	...........	-32768,00
	909	30,3333	5,90869E-001	8,22885E-007	0,00000E+000	5,90996E-001	0,00000E+000	7	...........	-32768,00
	912	30,4333	5,87866E-001	8,04841E-007	0,00000E+000	5,87995E-001	0,00000E+000	7	...........	-32768,00
	915	30,5333	5,84963E-001	7,76437E-007	0,00000E+000	5,84995E-001	0,00000E+000	7	...........	-32768,00
	918	30,6333	5,81860E-001	7,42019E-007	0,00000E+000	5,81995E-001	0,00000E+000	7	...........	-32768,00
	921	30,7333	5,78857E-001	7,13950E-007	0,00000E+000	5,78995E-001	0,00000E+000	7	...........	-32768,00
	924	30,8333	5,75854E-001	6,87217E-007	0,00000E+000	5,75994E-001	0,00000E+000	7	...........	-32768,00
	927	30,9333	5,72951E-001	6,59817E-007	0,00000E+000	5,72994E-001	0,00000E+000	7	...........	-32768,00
	930	31,0333	5,69848E-001	6,32750E-007	0,00000E+000	5,69994E-001	0,00000E+000	7	...........	-32768,00
	933	31,1333	5,66846E-001	5,93319E-007	0,00000E+000	5,67006E-001	0,00000E+000	7	...........	-32768,00
	936	31,2333	5,63943E-001	5,71265E-007	0,00000E+000	5,64006E-001	0,00000E+000	7	...........	-32768,00
	939	31,3333	5,60840E-001	5,34842E-007	0,00000E+000	5,61006E-001	0,00000E+000	7	...........	-32768,00
	942	31,4333	5,57837E-001	5,11451E-007	0,00000E+000	5,58005E-001	0,00000E+000	7	...........	-32768,00
	945	31,5333	5,54834E-001	4,87057E-007	0,00000E+000	5,55005E-001	0,00000E+000	7	...........	-32768,00
	948	31,6333	5,51831E-001	4,59322E-007	0,00000E+000	5,52005E-001	0,00000E+000	7	...........	-32768,00
	951	31,7333	5,48828E-001	4,24570E-007	0,00000E+000	5,49005E-001	0,00000E+000	7	...........	-32768,00
	954	31,8333	5,45825E-001	4,08530E-007	0,00000E+000	5,46004E-001	0,00000E+000	7	...........	-32768,00
	957	31,9333	5,42822E-001	3,82466E-007	0,00000E+000	5,43004E-001	0,00000E+000	7	...........	-32768,00
	960	32,0333	5,39820E-001	3,61414E-007	0,00000E+000	5,40004E-001	0,00000E+000	7	...........	-32768,00
	963	32,1333	5,36817E-001	3,39694E-007	0,00000E+000	5,37004E-001	0,00000E+000	7	...........	-32768,00
	966	32,2333	5,33814E-001	3,31006E-007	0,00000E+000	5,34003E-001	0,00000E+000	7	...........	-32768,00
	969	32,3333	5,30911E-001	3,09620E-007	0,00000E+000	5,31003E-001	0,00000E+000	7	...........	-32768,00
	972	32,4333	5,27908E-001	2,85561E-007	0,00000E+000	5,28003E-001	0,00000E+000	7	...........	-32768,00
	975	32,5333	5,24905E-001	2,89905E-007	0,00000E+000	5,25003E-001	0,00000E+000	7	...........	-32768,00
	978	32,6333	5,21802E-001	2,65177E-007	0,00000E+000	5,22003E-001	0,00000E+000	7	...........	-32768,00
	981	32,7333	5,18900E-001	2,53482E-007	0,00000E+000	5,19002E-001	0,00000E+000	7	...........	-32768,00
	984	32,8333	5,15796E-001	2,26081E-007	0,00000E+000	5,16002E-001	0,00000E+000	7	...........	-32768,00
	987	32,9333	5,12894E-001	2,26749E-007	0,00000E+000	5,13002E-001	0,00000E+000	7	...........	-32768,00
	990	33,0333	5,09791E-001	2,06366E-007	0,00000E+000	5,10002E-001	0,00000E+000	7	...........	-32768,00
	993	33,1333	5,06888E-001	1,88655E-007	0,00000E+000	5,07001E-001	0,00000E+000	7	...........	-32768,00
	996	33,2333	5,03885E-001	1,74621E-007	0,00000E+000	5,04001E-001	0,00000E+000	7	...........	-32768,00
	999	33,3333	5,00882E-001	1,70277E-007	0,00000E+000	5,01001E-001	0,00000E+000	7	...........	-32768,00
	1002	33,4333	4,97779E-001	1,48556E-007	0,00000E+000	4,98001E-001	0,00000E+000	7	...........	-32768,00
	1005	33,5333	4,94776E-001	1,42876E-007	0,00000E+000	4,95000E-001	0,00000E+000	7	...........	-32768,00
	1008	33,6333	4,91874E-001	1,17814E-007	0,00000E+000	4,92000E-001	0,00000E+000	7	...........	-32768,00
	1011	33,7333	4,88871E-001	1,03111E-007	0,00000E+000	4,89000E-001	0,00000E+000	7	...........	-32768,00
	1014	33,8333	4,85868E-001	9,54254E-008	0,00000E+000	4,86000E-001	0,00000E+000	7	...........	-32768,00
	1017	33,9333	4,82865E-001	6,66879E-008	0,00000E+000	4,82999E-001	0,00000E+000	7	...........	-32768,00
	1020	34,0333	4,79862E-001	5,13167E-008	0,00000E+000	4,79999E-001	0,00000E+000	7	...........	-32768,00
	1023	34,1333	4,76759E-001	3,39405E-008	0,00000E+000	4,76999E-001	0,00000E+000	7	...........	-32768,00
	1026	34,2333	4,73756E-001	-4,15335E-009	0,00000E+000	4,73999E-001	0,00000E+000	7	...........	-32768,00
	1029	34,3333	4,70853E-001	-2,75443E-008	0,00000E+000	4,70998E-001	0,00000E+000	7	...........	-32768,00
	1032	34,4333	4,67850E-001	-5,82868E-008	0,00000E+000	4,67998E-001	0,00000E+000	7	...........	-32768,00
	1035	34,5333	4,64948E-001	-8,53535E-008	0,00000E+000	4,64998E-001	0,00000E+000	7	...........	-32768,00
	1038	34,6333	4,61845E-001	-1,30131E-007	0,00000E+000	4,61998E-001	0,00000E+000	7	...........	-32768,00
	1041	34,7333	4,58842E-001	-1,72903E-007	0,00000E+000	4,58997E-001	0,00000E+000	7	...........	-32768,00
	1044	34,8333	4,55839E-001	-2,35390E-007	0,00000E+000	4,55997E-001	0,00000E+000	7	...........	-32768,00
	1047	34,9333	4,52836E-001	-3,17593E-007	0,00000E+000	4,52997E-001	0,00000E+000	7	...........	-32768,00
	1050	35,0333	4,49833E-001	-4,90018E-007	0,00000E+000	4,49997E-001	0,00000E+000	7	...........	-32768,00
	1053	35,1333	4,46830E-001	-9,31773E-007	0,00000E+000	4,46997E-001	0,00000E+000	7	...........	-32768,00
	1056	35,2333	4,43827E-001	-1,91921E-006	0,00000E+000	4,43996E-001	0,00000E+000	7	...........	-32768,00
	1059	35,3333	4,40824E-001	-3,68589E-006	0,00000E+000	4,40996E-001	0,00000E+000	7	...........	-32768,00
	1062	35,4333	4,37822E-001	-6,14462E-006	0,00000E+000	4,37996E-001	0,00000E+000	7	...........	-32768,00
	1065	35,5333	4,34919E-001	-8,97660E-006	0,00000E+000	4,34996E-001	0,00000E+000	7	...........	-32768,00
	1068	35,6333	4,31816E-001	-1,18978E-005	0,00000E+000	4,31995E-001	0,00000E+000	8	...........	-32768,00
	1071	35,7333	4,28813E-001	-1,46873E-005	0,00000E+000	4,28995E-001	0,00000E+000	8	...........	-32768,00
	1074	35,8333	4,25810E-001	-1,73232E-005	0,00000E+000	4,25995E-001	0,00000E+000	8	...........	-32768,00
	1077	35,9333	4,22807E-001	-1,97218E-005	0,00000E+000	4,22995E-001	0,00000E+000	8	...........	-32768,00
	1080	36,0333	4,19804E-001	-2,19100E-005	0,00000E+000	4,19994E-001	0,00000E+000	8	...........	-32768,00
	1083	36,1333	4,16801E-001	-2,39178E-005	0,00000E+000	4,16994E-001	0,00000E+000	8	...........	-32768,00
	1086	36,2333	4,13799E-001	-2,57218E-005	0,00000E+000	4,13994E-001	0,00000E+000	8	...........	-32768,00
	1089	36,3333	4,10796E-001	-2,72886E-005	0,00000E+000	4,11006E-001	0,00000E+000	8	...........	-32768,00
	1092	36,4333	4,07893E-001	-2,86616E-005	0,00000E+000	4,08006E-001	0,00000E+000	8	...........	-32768,00
	1095	36,5333	4,04890E-001	-2,98142E-005	0,00000E+000	4,05006E-001	0,00000E+000	8	...........	-32768,00
	1098	36,6333	4,01787E-001	-3,07596E-005	0,00000E+000	4,02005E-001	0,00000E+000	8	...........	-32768,00
	1101	36,7333	3,98784E-001	-3,14745E-005	0,00000E+000	3,99005E-001	0,00000E+000	8	...........	-32768,00
	1104	36,8333	3,95781E-001	-3,20224E-005	0,00000E+000	3,96005E-001	0,00000E+000	8	...........	-32768,00
	1107	36,9333	3,92878E-001	-3,23498E-005	0,00000E+000	3,93005E-001	0,00000E+000	8	...........	-32768,00
	1110	37,0333	3,89876E-001	-3,25335E-005	0,00000E+000	3,90004E-001	0,00000E+000	8	...........	-32768,00
	1113	37,1333	3,86973E-001	-3,25569E-005	0,00000E+000	3,87004E-001	0,00000E+000	8	...........	-32768,00
	1116	37,2333	3,83870E-001	-3,24400E-005	0,00000E+000	3,84004E-001	0,00000E+000	8	...........	-32768,00
	1119	37,3333	3,80867E-001	-3,21994E-005	0,00000E+000	3,81004E-001	0,00000E+000	8	...........	-32768,00
	1122	37,4333	3,77764E-001	-3,18654E-005	0,00000E+000	3,78003E-001	0,00000E+000	8	...........	-32768,00
	1125	37,5333	3,74861E-001	-3,14611E-005	0,00000E+000	3,75003E-001	0,00000E+000	8	...........	-32768,00
	1128	37,6333	3,71858E-001	-3,09667E-005	0,00000E+000	3,72003E-001	0,00000E+000	8	...........	-32768,00
	1131	37,7333	3,68855E-001	-3,04522E-005	0,00000E+000	3,69003E-001	0,00000E+000	8	...........	-32768,00
	1134	37,8333	3,65752E-001	-2,98843E-005	0,00000E+000	3,66003E-001	0,00000E+000	8	...........	-32768,00
	1137	37,9333	3,62950E-001	-2,92963E-005	0,00000E+000	3,63002E-001	0,00000E+000	8	...........	-32768,00
	1140	38,0333	3,59847E-001	-2,86817E-005	0,00000E+000	3,60002E-001	0,00000E+000	8	...........	-32768,00
	1143	38,1333	3,56844E-001	-2,80670E-005	0,00000E+000	3,57002E-001	0,00000E+000	8	...........	-32768,00
	1146	38,2333	3,53841E-001	-2,74322E-005	0,00000E+000	3,54002E-001	0,00000E+000	8	...........	-32768,00
	1149	38,3333	3,50838E-001	-2,68275E-005	0,00000E+000	3,51001E-001	0,00000E+000	8	...........	-32768,00
	1152	38,4333	3,47935E-001	-2,62129E-005	0,00000E+000	3,48001E-001	0,00000E+000	8	...........	-32768,00
	1155	38,5333	3,44832E-001	-2,56416E-005	0,00000E+000	3,45001E-001	0,00000E+000	8	...........	-32768,00
	1158	38,6333	3,41729E-001	-2,50703E-005	0,00000E+000	3,42001E-001	0,00000E+000	8	...........	-32768,00
	1161	38,7333	3,38826E-001	-2,44890E-005	0,00000E+000	3,39000E-001	0,00000E+000	8	...........	-32768,00
	1164	38,8333	3,35824E-001	-2,39779E-005	0,00000E+000	3,36000E-001	0,00000E+000	8	...........	-32768,00
	1167	38,9333	3,32821E-001	-2,34534E-005	0,00000E+000	3,33000E-001	0,00000E+000	8	...........	-32768,00
	1170	39,0333	3,29818E-001	-2,29423E-005	0,00000E+000	3,30000E-001	0,00000E+000	8	...........	-32768,00
	1173	39,1333	3,26815E-001	-2,24746E-005	0,00000E+000	3,26999E-001	0,00000E+000	8	...........	-32768,00
	1176	39,2333	3,23912E-001	-2,19902E-005	0,00000E+000	3,23999E-001	0,00000E+000	8	...........	-32768,00
	1179	39,3333	3,20709E-001	-2,15291E-005	0,00000E+000	3,20999E-001	0,00000E+000	8	...........	-32768,00
	1182	39,4333	3,17906E-001	-2,11049E-005	0,00000E+000	3,17999E-001	0,00000E+000	8	...........	-32768,00
	1185	39,5333	3,14803E-001	-2,07006E-005	0,00000E+000	3,14998E-001	0,00000E+000	8	...........	-32768,00
	1188	39,6333	3,11901E-001	-2,03064E-005	0,00000E+000	3,11998E-001	0,00000E+000	8	...........	-32768,00
	1191	39,7333	3,08798E-001	-1,99089E-005	0,00000E+000	3,08998E-001	0,00000E+000	8	...........	-32768,00
	1194	39,8333	3,05795E-001	-1,95280E-005	0,00000E+000	3,05998E-001	0,00000E+000	8	...........	-32768,00
	1197	39,9333	3,02792E-001	-1,91739E-005	0,00000E+000	3,02997E-001	0,00000E+000	8	...........	-32768,00
	1200	40,0333	2,99789E-001	-1,88231E-005	0,00000E+000	2,99997E-001	0,00000E+000	8	...........	-32768,00
	1203	40,1333	2,96786E-001	-1,85024E-005	0,00000E+000	2,96997E-001	0,00000E+000	8	...........	-32768,00
	1206	40,2333	2,93783E-001	-1,81750E-005	0,00000E+000	2,93997E-001	0,00000E+000	8	...........	-32768,00
	1209	40,3333	2,90880E-001	-1,78744E-005	0,00000E+000	2,90996E-001	0,00000E+000	8	...........	-32768,00
	1212	40,4333	2,87878E-001	-1,75737E-005	0,00000E+000	2,87996E-001	0,00000E+000	8	...........	-32768,00
	1215	40,5333	2,84775E-001	-1,72897E-005	0,00000E+000	2,84996E-001	0,00000E+000	8	...........	-32768,00
	1218	40,6333	2,81772E-001	-1,70058E-005	0,00000E+000	2,81996E-001	0,00000E+000	8	...........	-32768,00
	1221	40,7333	2,78769E-001	-1,67519E-005	0,00000E+000	2,78996E-001	0,00000E+000	8	...........	-32768,00
	1224	40,8333	2,75866E-001	-1,64813E-005	0,00000E+000	2,75995E-001	0,00000E+000	8	...........	-32768,00
	1227	40,9333	2,72763E-001	-1,62341E-005	0,00000E+000	2,72995E-001	0,00000E+000	8	...........	-32768,00
	1230	41,0333	2,69760E-001	-1,59902E-005	0,00000E+000	2,69995E-001	0,00000E+000	8	...........	-32768,00
	1233	41,1333	2,66757E-001	-1,57797E-005	0,00000E+000	2,66995E-001	0,00000E+000	8	...........	-32768,00
	1236	41,2333	2,63754E-001	-1,55325E-005	0,00000E+000	2,63994E-001	0,00000E+000	8	...........	-32768,00
	1239	41,3333	2,60852E-001	-1,53187E-005	0,00000E+000	2,60994E-001	0,00000E+000	8	...........	-32768,00
	1242	41,4333	2,57749E-001	-1,50982E-005	0,00000E+000	2,57994E-001	0,00000E+000	8	...........	-32768,00
	1245	41,5333	2,54846E-001	-1,49011E-005	0,00000E+000	2,55006E-001	0,00000E+000	8	...........	-32768,00
	1248	41,6333	2,51743E-001	-1,47207E-005	0,00000E+000	2,52006E-001	0,00000E+000	8	...........	-32768,00
	1251	41,7333	2,48740E-001	-1,45370E-005	0,00000E+000	2,49006E-001	0,00000E+000	8	...........	-32768,00
	1254	41,8333	2,45837E-001	-1,43466E-005	0,00000E+000	2,46005E-001	0,00000E+000	8	...........	-32768,00
	1257	41,9333	2,42834E-001	-1,41728E-005	0,00000E+000	2,43005E-001	0,00000E+000	8	...........	-32768,00
	1260	42,0333	2,39931E-001	-1,39924E-005	0,00000E+000	2,40005E-001	0,00000E+000	8	...........	-32768,00
	1263	42,1333	2,36828E-001	-1,38354E-005	0,00000E+000	2,37005E-001	0,00000E+000	8	...........	-32768,00
	1266	42,2333	2,33726E-001	-1,36817E-005	0,00000E+000	2,34004E-001	0,00000E+000	8	...........	-32768,00
	1269	42,3333	2,30723E-001	-1,35114E-005	0,00000E+000	2,31004E-001	0,00000E+000	8	...........	-32768,00
	1272	42,4333	2,27920E-001	-1,33577E-005	0,00000E+000	2,28004E-001	0,00000E+000	8	...........	-32768,00
	1275	42,5333	2,24717E-001	-1,32341E-005	0,00000E+000	2,25004E-001	0,00000E+000	8	...........	-32768,00
	1278	42,6333	2,21814E-001	-1,30838E-005	0,00000E+000	2,22003E-001	0,00000E+000	8	...........	-32768,00
	1281	42,7333	2,18811E-001	-1,29501E-005	0,00000E+000	2,19003E-001	0,00000E+000	8	...........	-32768,00
	1284	42,8333	2,15808E-001	-1,28132E-005	0,00000E+000	2,16003E-001	0,00000E+000	8	...........	-32768,00
	1287	42,9333	2,12805E-001	-1,26762E-005	0,00000E+000	2,13003E-001	0,00000E+000	8	...........	-32768,00
	1290	43,0333	2,09803E-001	-1,25459E-005	0,00000E+000	2,10003E-001	0,00000E+000	8	...........	-32768,00
	1293	43,1333	2,06900E-001	-1,24323E-005	0,00000E+000	2,07002E-001	0,00000E+000	8	...........	-32768,00
	1296	43,2333	2,03797E-001	-1,23254E-005	0,00000E+000	2,04002E-001	0,00000E+000	8	...........	-32768,00
	1299	43,3333	2,00794E-001	-1,22018E-005	0,00000E+000	2,01002E-001	0,00000E+000	8	...........	-32768,00
	1302	43,4333	1,97891E-001	-1,20982E-005	0,00000E+000	1,98002E-001	0,00000E+000	8	...........	-32768,00
	1305	43,5333	1,94788E-001	-1,19880E-005	0,00000E+000	1,95001E-001	0,00000E+000	8	...........	-32768,00
	1308	43,6333	1,91785E-001	-1,19011E-005	0,00000E+000	1,92001E-001	0,00000E+000	8	...........	-32768,00
	1311	43,7333	1,88782E-001	-1,18009E-005	0,00000E+000	1,89001E-001	0,00000E+000	8	...........	-32768,00
	1314	43,8333	1,85880E-001	-1,16806E-005	0,00000E+000	1,86001E-001	0,00000E+000	8	...........	-32768,00
	1317	43,9333	1,82877E-001	-1,15971E-005	0,00000E+000	1,83000E-001	0,00000E+000	8	...........	-32768,00
	1320	44,0333	1,79774E-001	-1,14969E-005	0,00000E+000	1,80000E-001	0,00000E+000	8	...........	-32768,00
	1323	44,1333	1,76771E-001	-1,14201E-005	0,00000E+000	1,77000E-001	0,00000E+000	8	...........	-32768,00
	1326	44,2333	1,73768E-001	-1,13566E-005	0,00000E+000	1,74000E-001	0,00000E+000	8	...........	-32768,00
	1329	44,3333	1,70865E-001	-1,12497E-005	0,00000E+000	1,70999E-001	0,00000E+000	8	...........	-32768,00
	1332	44,4333	1,67862E-001	-1,12230E-005	0,00000E+000	1,67999E-001	0,00000E+000	8	...........	-32768,00
	1335	44,5333	1,64659E-001	-1,11194E-005	0,00000E+000	1,64999E-001	0,00000E+000	8	...........	-32768,00
	1338	44,6333	1,61856E-001	-1,10359E-005	0,00000E+000	1,61999E-001	0,00000E+000	8	...........	-32768,00
	1341	44,7333	1,58753E-001	-1,09557E-005	0,00000E+000	1,58998E-001	0,00000E+000	8	...........	-32768,00
	1344	44,8333	1,55751E-001	-1,08789E-005	0,00000E+000	1,55998E-001	0,00000E+000	8	...........	-32768,00
	1347	44,9333	1,52748E-001	-1,07887E-005	0,00000E+000	1,52998E-001	0,00000E+000	8	...........	-32768,00
	1350	45,0333	1,49845E-001	-1,07219E-005	0,00000E+000	1,49998E-001	0,00000E+000	8	...........	-32768,00
	1353	45,1333	1,46742E-001	-1,06584E-005	0,00000E+000	1,46997E-001	0,00000E+000	8	...........	-32768,00
	1356	45,2333	1,43839E-001	-1,05882E-005	0,00000E+000	1,43997E-001	0,00000E+000	8	...........	-32768,00
	1359	45,3333	1,40736E-001	-1,05214E-005	0,00000E+000	1,40997E-001	0,00000E+000	8	...........	-32768,00
	1362	45,4333	1,37733E-001	-1,04746E-005	0,00000E+000	1,37997E-001	0,00000E+000	8	...........	-32768,00
	1365	45,5333	1,34730E-001	-1,04279E-005	0,00000E+000	1,34997E-001	0,00000E+000	8	...........	-32768,00
	1368	45,6333	1,31828E-001	-1,04045E-005	0,00000E+000	1,31996E-001	0,00000E+000	8	...........	-32768,00
	1371	45,7333	1,28725E-001	-1,03544E-005	0,00000E+000	1,28996E-001	0,00000E+000	8	...........	-32768,00
	1374	45,8333	1,25822E-001	-1,03009E-005	0,00000E+000	1,25996E-001	0,00000E+000	8	...........	-32768,00
	1377	45,9333	1,22819E-001	-1,02642E-005	0,00000E+000	1,22996E-001	0,00000E+000	8	...........	-32768,00
	1380	46,0333	1,19816E-001	-1,02074E-005	0,00000E+000	1,19995E-001	0,00000E+000	8	...........	-32768,00
	1383	46,1333	1,16713E-001	-1,01873E-005	0,00000E+000	1,16995E-001	0,00000E+000	8	...........	-32768,00
	1386	46,2333	1,13810E-001	-1,01406E-005	0,00000E+000	1,13995E-001	0,00000E+000	8	...........	-32768,00
	1389	46,3333	1,10707E-001	-1,01072E-005	0,00000E+000	1,10995E-001	0,00000E+000	8	...........	-32768,00
	1392	46,4333	1,07704E-001	-1,00838E-005	0,00000E+000	1,07994E-001	0,00000E+000	8	...........	-32768,00
	1395	46,5333	1,04802E-001	-1,00470E-005	0,00000E+000	1,04994E-001	0,00000E+000	8	...........	-32768,00
	1398	46,6333	1,01799E-001	-1,00170E-005	0,00000E+000	1,01994E-001	0,00000E+000	8	...........	-32768,00
	1400	46,7	9,98969E-002	-1,00103E-005	0,00000E+000	1,00006E-001	0,00000E+000	8	...........	-32768,00