File: HOPG_cv/1mM/AgNO3_HOPG_1mM_4_70mv_cv.DTA
EXPLAIN
TAG	CV
TITLE	LABEL	Cyclic Voltammetry	Test &Identifier
DATE	LABEL	7/4/2022	Date
TIME	LABEL	20:08:32	Time
NOTES	NOTES	2	&Notes...
	07/04/22 , 1mM  AgNO3

PSTAT	PSTAT	IFC1000-09004	Potentiostat
VINIT	POTEN	1,00000E-001	F	Initial &E (V)
VLIMIT1	POTEN	1,00000E-001	F	Scan Limit &1 (V)
VLIMIT2	POTEN	8,00000E-001	F	Scan Limit &2 (V)
VFINAL	POTEN	1,00000E-001	F	Final &E (V)
SCANRATE	QUANT	7,00115E+001	&Scan Rate (mV/s)
STEPSIZE	QUANT	1,00000E+000	St&ep Size (mV)
CYCLES	IQUANT	1	C&ycles (#)
IMODE	SELECTOR	0	I/E Range &Mode
IRANGE	QUANT	1,00000E-005	&Max Current (mA)
AREA	QUANT	1,00000E+000	Electrode &Area (cm^2)
ELECTRODETYPE	SELECTOR	0	Electrode Type
STRIPPING	TOGGLE	F	Used for Stripping
POLARITY	TOGGLE	F	Signal Polarity
CONDIT	TWOPARAM	F	1,50000E+001	0,00000E+000	Conditionin&g	Time(s)	E(V)
DELAY	TWOPARAM	F	3,00000E+001	0,00000E+000	Init. De&lay	Time(s)	Stab.(mV/s)
EQDELAY	QUANT	1,00000E+001	Equil. &Time (s)
IRCOMP	SELECTOR	0	IRCom&p
PFCOR	QUANT	5,00000E+001	PF Corr. (ohm)
SAMPLINGMODE	SELECTOR	0	Sampling &Mode
EOC	QUANT	0	Open Circuit (V)
PSTATMODEL	IQUANT	48	Pstat Model
PSTATSECTION	LABEL	IFC1000-09004	Pstat Section
PSTATSERIALNO	LABEL	09004	Pstat Serial Number
CTRLMODE	IQUANT	1	Control Mode
ELECTROMETER	IQUANT	0	RE=0 or CS=1
IESTAB	IQUANT	2	I/E Stability
CASPEED	IQUANT	4	Control Amp Speed
CONVENTION	IQUANT	1	Current Convention
ICHRANGE	IQUANT	2	Ich Range
ICHRANGEMODE	TOGGLE	F	Ich Auto Range
ICHOFFSETENABLE	TOGGLE	F	Ich Offset Enable
ICHOFFSET	QUANT	0	Ich Offset (V)
ICHFILTER	IQUANT	3	Ich Filter
VCHRANGE	IQUANT	2	Vch Range
VCHRANGEMODE	TOGGLE	F	Vch Auto Range
VCHOFFSETENABLE	TOGGLE	F	Vch Offset Enable
VCHOFFSET	QUANT	0	Vch Offset (V)
VCHFILTER	IQUANT	3	Vch Filter
IERANGELOWERLIMIT	IQUANT	4	I/E Range Lower Limit
IERANGEMODE	TOGGLE	T	I/E AutoRange
IERANGE	IQUANT	5	I/E Range
ACHSELECT	IQUANT	0	Ach Select
ACHRANGE	IQUANT	2	Ach Range
ACHOFFSETENABLE	TOGGLE	F	Ach Offset Enable
ACHOFFSET	QUANT	0	Ach Offset (V)
ACHFILTER	IQUANT	1	Ach Filter
CABLEID	IQUANT	14	Cable ID
DCCALDATE	LABEL	3/18/2022	DC Calibration Date
ACCALDATE	LABEL	3/10/2016	AC Calibration Date
FRAMEWORKVERSION	QUANT	7,05	Framework Version
INSTRUMENTVERSION	LABEL	4.21	Instrument Version
CURVE1	TABLE
	Pt	T	Vf	Im	Vu	Sig	Ach	IERange	Over	Temp
	#	s	V vs. Ref.	A	V	V	V	#	bits	deg C
	0	0,014283	9,97968E-002	-7,18519E-006	0,00000E+000	1,00006E-001	0,00000E+000	7	...........	-32768,00
	3	0,057133	1,02800E-001	-7,01944E-006	0,00000E+000	1,02994E-001	0,00000E+000	7	...........	-32768,00
	6	0,099983	1,05803E-001	-6,89748E-006	0,00000E+000	1,05994E-001	0,00000E+000	7	...........	-32768,00
	9	0,142833	1,08805E-001	-6,80792E-006	0,00000E+000	1,08994E-001	0,00000E+000	7	...........	-32768,00
	12	0,185683	1,11808E-001	-6,72973E-006	0,00000E+000	1,11995E-001	0,00000E+000	7	...........	-32768,00
	15	0,228533	1,14811E-001	-6,65789E-006	0,00000E+000	1,14995E-001	0,00000E+000	7	...........	-32768,00
	18	0,271383	1,17914E-001	-6,59239E-006	0,00000E+000	1,17995E-001	0,00000E+000	7	...........	-32768,00
	21	0,314233	1,20817E-001	-6,59039E-006	0,00000E+000	1,20995E-001	0,00000E+000	7	...........	-32768,00
	24	0,357083	1,23920E-001	-6,45706E-006	0,00000E+000	1,23996E-001	0,00000E+000	7	...........	-32768,00
	27	0,399933	1,26823E-001	-6,40059E-006	0,00000E+000	1,26996E-001	0,00000E+000	7	...........	-32768,00
	30	0,442783	1,29826E-001	-6,34679E-006	0,00000E+000	1,29996E-001	0,00000E+000	7	...........	-32768,00
	33	0,485633	1,32929E-001	-6,30869E-006	0,00000E+000	1,32996E-001	0,00000E+000	7	...........	-32768,00
	36	0,528483	1,35831E-001	-6,24621E-006	0,00000E+000	1,35997E-001	0,00000E+000	7	...........	-32768,00
	39	0,571333	1,38734E-001	-6,20210E-006	0,00000E+000	1,38997E-001	0,00000E+000	7	...........	-32768,00
	42	0,614183	1,41837E-001	-6,15699E-006	0,00000E+000	1,41997E-001	0,00000E+000	7	...........	-32768,00
	45	0,657033	1,44740E-001	-6,12090E-006	0,00000E+000	1,44997E-001	0,00000E+000	7	...........	-32768,00
	48	0,699883	1,47843E-001	-6,08080E-006	0,00000E+000	1,47998E-001	0,00000E+000	7	...........	-32768,00
	51	0,742733	1,50646E-001	-6,03803E-006	0,00000E+000	1,50985E-001	0,00000E+000	7	...........	-32768,00
	54	0,785583	1,53849E-001	-6,00294E-006	0,00000E+000	1,53986E-001	0,00000E+000	7	...........	-32768,00
	57	0,828433	1,56852E-001	-5,97520E-006	0,00000E+000	1,56986E-001	0,00000E+000	7	...........	-32768,00
	60	0,871283	1,59754E-001	-5,93577E-006	0,00000E+000	1,59986E-001	0,00000E+000	7	...........	-32768,00
	63	0,914133	1,62857E-001	-5,90603E-006	0,00000E+000	1,62986E-001	0,00000E+000	7	...........	-32768,00
	66	0,95698	1,65760E-001	-5,88431E-006	0,00000E+000	1,65986E-001	0,00000E+000	7	...........	-32768,00
	69	0,99983	1,68763E-001	-5,82517E-006	0,00000E+000	1,68987E-001	0,00000E+000	7	...........	-32768,00
	72	1,04268	1,71766E-001	-5,80478E-006	0,00000E+000	1,71987E-001	0,00000E+000	7	...........	-32768,00
	75	1,08553	1,74869E-001	-5,79376E-006	0,00000E+000	1,74987E-001	0,00000E+000	7	...........	-32768,00
	78	1,12838	1,77872E-001	-5,74898E-006	0,00000E+000	1,77987E-001	0,00000E+000	7	...........	-32768,00
	81	1,17123	1,80875E-001	-5,73160E-006	0,00000E+000	1,80988E-001	0,00000E+000	7	...........	-32768,00
	84	1,21408	1,83878E-001	-5,70688E-006	0,00000E+000	1,83988E-001	0,00000E+000	7	...........	-32768,00
	87	1,25693	1,86780E-001	-5,68282E-006	0,00000E+000	1,86988E-001	0,00000E+000	7	...........	-32768,00
	90	1,29978	1,89783E-001	-5,68616E-006	0,00000E+000	1,89988E-001	0,00000E+000	7	...........	-32768,00
	93	1,34263	1,92786E-001	-5,63804E-006	0,00000E+000	1,92989E-001	0,00000E+000	7	...........	-32768,00
	96	1,38548	1,95789E-001	-5,63136E-006	0,00000E+000	1,95989E-001	0,00000E+000	7	...........	-32768,00
	99	1,42833	1,98792E-001	-5,59827E-006	0,00000E+000	1,98989E-001	0,00000E+000	7	...........	-32768,00
	102	1,47118	2,01695E-001	-5,59995E-006	0,00000E+000	2,01977E-001	0,00000E+000	7	...........	-32768,00
	105	1,51403	2,04698E-001	-5,55851E-006	0,00000E+000	2,04977E-001	0,00000E+000	7	...........	-32768,00
	108	1,55688	2,07801E-001	-5,54681E-006	0,00000E+000	2,07977E-001	0,00000E+000	7	...........	-32768,00
	111	1,59973	2,10803E-001	-5,50972E-006	0,00000E+000	2,10978E-001	0,00000E+000	7	...........	-32768,00
	114	1,64258	2,13806E-001	-5,49836E-006	0,00000E+000	2,13978E-001	0,00000E+000	7	...........	-32768,00
	117	1,68543	2,16809E-001	-5,48500E-006	0,00000E+000	2,16978E-001	0,00000E+000	7	...........	-32768,00
	120	1,72828	2,19812E-001	-5,45158E-006	0,00000E+000	2,19978E-001	0,00000E+000	7	...........	-32768,00
	123	1,77113	2,22815E-001	-5,43788E-006	0,00000E+000	2,22979E-001	0,00000E+000	7	...........	-32768,00
	126	1,81398	2,25918E-001	-5,41850E-006	0,00000E+000	2,25979E-001	0,00000E+000	7	...........	-32768,00
	129	1,85683	2,28821E-001	-5,40781E-006	0,00000E+000	2,28979E-001	0,00000E+000	7	...........	-32768,00
	132	1,89968	2,31824E-001	-5,38074E-006	0,00000E+000	2,31979E-001	0,00000E+000	7	...........	-32768,00
	135	1,94253	2,34827E-001	-5,35701E-006	0,00000E+000	2,34980E-001	0,00000E+000	7	...........	-32768,00
	138	1,98538	2,37729E-001	-5,35735E-006	0,00000E+000	2,37980E-001	0,00000E+000	7	...........	-32768,00
	141	2,02823	2,40932E-001	-5,32293E-006	0,00000E+000	2,40980E-001	0,00000E+000	7	...........	-32768,00
	144	2,07108	2,43735E-001	-5,31224E-006	0,00000E+000	2,43980E-001	0,00000E+000	7	...........	-32768,00
	147	2,11393	2,46838E-001	-5,29085E-006	0,00000E+000	2,46980E-001	0,00000E+000	7	...........	-32768,00
	150	2,15678	2,49741E-001	-5,27414E-006	0,00000E+000	2,49981E-001	0,00000E+000	7	...........	-32768,00
	153	2,19963	2,52844E-001	-5,30522E-006	0,00000E+000	2,52968E-001	0,00000E+000	7	...........	-32768,00
	156	2,24248	2,55847E-001	-5,26245E-006	0,00000E+000	2,55969E-001	0,00000E+000	7	...........	-32768,00
	159	2,28533	2,58850E-001	-5,23204E-006	0,00000E+000	2,58969E-001	0,00000E+000	7	...........	-32768,00
	162	2,32818	2,61752E-001	-5,21366E-006	0,00000E+000	2,61969E-001	0,00000E+000	7	...........	-32768,00
	165	2,37103	2,64755E-001	-5,19294E-006	0,00000E+000	2,64969E-001	0,00000E+000	7	...........	-32768,00
	168	2,41388	2,67758E-001	-5,17356E-006	0,00000E+000	2,67970E-001	0,00000E+000	7	...........	-32768,00
	171	2,45673	2,70761E-001	-5,14449E-006	0,00000E+000	2,70970E-001	0,00000E+000	7	...........	-32768,00
	174	2,49958	2,73764E-001	-5,13781E-006	0,00000E+000	2,73970E-001	0,00000E+000	7	...........	-32768,00
	177	2,54243	2,76767E-001	-5,11843E-006	0,00000E+000	2,76970E-001	0,00000E+000	7	...........	-32768,00
	180	2,58528	2,79670E-001	-5,09336E-006	0,00000E+000	2,79971E-001	0,00000E+000	7	...........	-32768,00
	183	2,62813	2,82873E-001	-5,05761E-006	0,00000E+000	2,82971E-001	0,00000E+000	7	...........	-32768,00
	186	2,67098	2,85776E-001	-5,03589E-006	0,00000E+000	2,85971E-001	0,00000E+000	7	...........	-32768,00
	189	2,71383	2,88778E-001	-5,01049E-006	0,00000E+000	2,88971E-001	0,00000E+000	7	...........	-32768,00
	192	2,75668	2,91781E-001	-4,99078E-006	0,00000E+000	2,91972E-001	0,00000E+000	7	...........	-32768,00
	195	2,79953	2,94784E-001	-4,95469E-006	0,00000E+000	2,94972E-001	0,00000E+000	7	...........	-32768,00
	198	2,84238	2,97887E-001	-4,92227E-006	0,00000E+000	2,97972E-001	0,00000E+000	7	...........	-32768,00
	201	2,88523	3,00790E-001	-4,90590E-006	0,00000E+000	3,00972E-001	0,00000E+000	7	...........	-32768,00
	204	2,92808	3,03893E-001	-4,86848E-006	0,00000E+000	3,03960E-001	0,00000E+000	7	...........	-32768,00
	207	2,97093	3,06796E-001	-4,83138E-006	0,00000E+000	3,06960E-001	0,00000E+000	7	...........	-32768,00
	210	3,01378	3,09799E-001	-4,78393E-006	0,00000E+000	3,09961E-001	0,00000E+000	7	...........	-32768,00
	213	3,05663	3,12801E-001	-4,74517E-006	0,00000E+000	3,12961E-001	0,00000E+000	7	...........	-32768,00
	216	3,09948	3,15704E-001	-4,68569E-006	0,00000E+000	3,15961E-001	0,00000E+000	7	...........	-32768,00
	219	3,14233	3,18807E-001	-4,64259E-006	0,00000E+000	3,18961E-001	0,00000E+000	7	...........	-32768,00
	222	3,18518	3,21910E-001	-4,59447E-006	0,00000E+000	3,21961E-001	0,00000E+000	7	...........	-32768,00
	225	3,22803	3,24713E-001	-4,54668E-006	0,00000E+000	3,24962E-001	0,00000E+000	7	...........	-32768,00
	228	3,27088	3,27816E-001	-4,49021E-006	0,00000E+000	3,27962E-001	0,00000E+000	7	...........	-32768,00
	231	3,31373	3,30819E-001	-4,42071E-006	0,00000E+000	3,30962E-001	0,00000E+000	7	...........	-32768,00
	234	3,35658	3,33822E-001	-4,34318E-006	0,00000E+000	3,33962E-001	0,00000E+000	7	...........	-32768,00
	237	3,39943	3,36925E-001	-4,26833E-006	0,00000E+000	3,36963E-001	0,00000E+000	7	...........	-32768,00
	240	3,44228	3,39827E-001	-4,18813E-006	0,00000E+000	3,39963E-001	0,00000E+000	7	...........	-32768,00
	243	3,48513	3,42830E-001	-4,10159E-006	0,00000E+000	3,42963E-001	0,00000E+000	7	...........	-32768,00
	246	3,52798	3,45733E-001	-4,00435E-006	0,00000E+000	3,45963E-001	0,00000E+000	7	...........	-32768,00
	249	3,57083	3,48836E-001	-3,92148E-006	0,00000E+000	3,48964E-001	0,00000E+000	7	...........	-32768,00
	252	3,61368	3,51839E-001	-3,80619E-006	0,00000E+000	3,51964E-001	0,00000E+000	7	...........	-32768,00
	255	3,65653	3,54842E-001	-3,68289E-006	0,00000E+000	3,54952E-001	0,00000E+000	7	...........	-32768,00
	258	3,69938	3,57745E-001	-3,54388E-006	0,00000E+000	3,57952E-001	0,00000E+000	7	...........	-32768,00
	261	3,74223	3,60748E-001	-3,42057E-006	0,00000E+000	3,60952E-001	0,00000E+000	7	...........	-32768,00
	264	3,78508	3,63750E-001	-3,28958E-006	0,00000E+000	3,63952E-001	0,00000E+000	7	...........	-32768,00
	267	3,82793	3,66753E-001	-3,12351E-006	0,00000E+000	3,66953E-001	0,00000E+000	7	...........	-32768,00
	270	3,87078	3,69756E-001	-2,96178E-006	0,00000E+000	3,69953E-001	0,00000E+000	7	...........	-32768,00
	273	3,91363	3,72959E-001	-2,78868E-006	0,00000E+000	3,72953E-001	0,00000E+000	7	...........	-32768,00
	276	3,95648	3,75862E-001	-2,61860E-006	0,00000E+000	3,75953E-001	0,00000E+000	7	...........	-32768,00
	279	3,99933	3,78865E-001	-2,40307E-006	0,00000E+000	3,78954E-001	0,00000E+000	7	...........	-32768,00
	282	4,04218	3,81768E-001	-2,18586E-006	0,00000E+000	3,81954E-001	0,00000E+000	7	...........	-32768,00
	285	4,08503	3,84771E-001	-1,97735E-006	0,00000E+000	3,84954E-001	0,00000E+000	7	...........	-32768,00
	288	4,12788	3,87774E-001	-1,74645E-006	0,00000E+000	3,87954E-001	0,00000E+000	7	...........	-32768,00
	291	4,17073	3,90776E-001	-1,51755E-006	0,00000E+000	3,90955E-001	0,00000E+000	7	...........	-32768,00
	294	4,21358	3,93779E-001	-1,26860E-006	0,00000E+000	3,93955E-001	0,00000E+000	7	...........	-32768,00
	297	4,25643	3,96782E-001	-1,00863E-006	0,00000E+000	3,96955E-001	0,00000E+000	7	...........	-32768,00
	300	4,29928	3,99685E-001	-7,33952E-007	0,00000E+000	3,99955E-001	0,00000E+000	7	...........	-32768,00
	303	4,34213	4,02788E-001	-4,36552E-007	0,00000E+000	4,02955E-001	0,00000E+000	7	...........	-32768,00
	306	4,38498	4,05791E-001	-1,57866E-007	0,00000E+000	4,05943E-001	0,00000E+000	7	...........	-32768,00
	309	4,42783	4,08794E-001	1,53569E-007	0,00000E+000	4,08943E-001	0,00000E+000	7	...........	-32768,00
	312	4,47068	4,11696E-001	4,56649E-007	0,00000E+000	4,11944E-001	0,00000E+000	7	...........	-32768,00
	315	4,51353	4,14699E-001	7,69754E-007	0,00000E+000	4,14944E-001	0,00000E+000	7	...........	-32768,00
	318	4,55638	4,17802E-001	1,09355E-006	0,00000E+000	4,17944E-001	0,00000E+000	7	...........	-32768,00
	321	4,59923	4,20805E-001	1,44742E-006	0,00000E+000	4,20944E-001	0,00000E+000	7	...........	-32768,00
	324	4,64208	4,23708E-001	1,82369E-006	0,00000E+000	4,23945E-001	0,00000E+000	7	...........	-32768,00
	327	4,68493	4,26811E-001	2,18257E-006	0,00000E+000	4,26945E-001	0,00000E+000	7	...........	-32768,00
	330	4,72778	4,29814E-001	2,57788E-006	0,00000E+000	4,29945E-001	0,00000E+000	7	...........	-32768,00
	333	4,77063	4,32717E-001	2,99323E-006	0,00000E+000	4,32945E-001	0,00000E+000	7	...........	-32768,00
	336	4,81348	4,35720E-001	3,43365E-006	0,00000E+000	4,35946E-001	0,00000E+000	7	...........	-32768,00
	339	4,85633	4,38823E-001	3,88543E-006	0,00000E+000	4,38946E-001	0,00000E+000	7	...........	-32768,00
	342	4,89918	4,41725E-001	4,38299E-006	0,00000E+000	4,41946E-001	0,00000E+000	7	...........	-32768,00
	345	4,94203	4,44728E-001	4,90161E-006	0,00000E+000	4,44946E-001	0,00000E+000	7	...........	-32768,00
	348	4,98488	4,47831E-001	5,45965E-006	0,00000E+000	4,47947E-001	0,00000E+000	7	...........	-32768,00
	351	5,02773	4,50834E-001	6,04776E-006	0,00000E+000	4,50947E-001	0,00000E+000	7	...........	-32768,00
	354	5,07058	4,53737E-001	6,69436E-006	0,00000E+000	4,53947E-001	0,00000E+000	7	...........	-32768,00
	357	5,11343	4,56840E-001	7,39074E-006	0,00000E+000	4,56935E-001	0,00000E+000	7	...........	-32768,00
	360	5,15628	4,59843E-001	8,11954E-006	0,00000E+000	4,59935E-001	0,00000E+000	7	...........	-32768,00
	363	5,19913	4,62846E-001	8,93555E-006	0,00000E+000	4,62935E-001	0,00000E+000	7	...........	-32768,00
	366	5,24198	4,65849E-001	9,79360E-006	0,00000E+000	4,65936E-001	0,00000E+000	8	...........	-32768,00
	369	5,28483	4,68751E-001	1,07090E-005	0,00000E+000	4,68936E-001	0,00000E+000	8	...........	-32768,00
	372	5,32768	4,71754E-001	1,16945E-005	0,00000E+000	4,71936E-001	0,00000E+000	8	...........	-32768,00
	375	5,37053	4,74857E-001	1,27334E-005	0,00000E+000	4,74936E-001	0,00000E+000	8	...........	-32768,00
	378	5,41338	4,77760E-001	1,38626E-005	0,00000E+000	4,77937E-001	0,00000E+000	8	...........	-32768,00
	381	5,45623	4,80763E-001	1,50720E-005	0,00000E+000	4,80937E-001	0,00000E+000	8	...........	-32768,00
	384	5,49908	4,83766E-001	1,63782E-005	0,00000E+000	4,83937E-001	0,00000E+000	8	...........	-32768,00
	387	5,54193	4,86769E-001	1,77345E-005	0,00000E+000	4,86937E-001	0,00000E+000	8	...........	-32768,00
	390	5,58478	4,89771E-001	1,92145E-005	0,00000E+000	4,89937E-001	0,00000E+000	8	...........	-32768,00
	393	5,62763	4,92674E-001	2,07713E-005	0,00000E+000	4,92938E-001	0,00000E+000	8	...........	-32768,00
	396	5,67048	4,95777E-001	2,23982E-005	0,00000E+000	4,95938E-001	0,00000E+000	8	...........	-32768,00
	399	5,71333	4,98780E-001	2,41287E-005	0,00000E+000	4,98938E-001	0,00000E+000	8	...........	-32768,00
	402	5,75618	5,01783E-001	2,59494E-005	0,00000E+000	5,01938E-001	0,00000E+000	8	...........	-32768,00
	405	5,79903	5,04786E-001	2,78803E-005	0,00000E+000	5,04939E-001	0,00000E+000	8	...........	-32768,00
	408	5,84188	5,07689E-001	2,98781E-005	0,00000E+000	5,07926E-001	0,00000E+000	8	...........	-32768,00
	411	5,88473	5,10792E-001	3,19828E-005	0,00000E+000	5,10927E-001	0,00000E+000	8	...........	-32768,00
	414	5,92758	5,13795E-001	3,42077E-005	0,00000E+000	5,13927E-001	0,00000E+000	8	...........	-32768,00
	417	5,97043	5,16798E-001	3,65095E-005	0,00000E+000	5,16927E-001	0,00000E+000	8	...........	-32768,00
	420	6,01328	5,19800E-001	3,88981E-005	0,00000E+000	5,19927E-001	0,00000E+000	8	...........	-32768,00
	423	6,05613	5,22803E-001	4,13669E-005	0,00000E+000	5,22928E-001	0,00000E+000	8	...........	-32768,00
	426	6,09898	5,25806E-001	4,39560E-005	0,00000E+000	5,25928E-001	0,00000E+000	8	...........	-32768,00
	429	6,14183	5,28709E-001	4,65785E-005	0,00000E+000	5,28928E-001	0,00000E+000	8	...........	-32768,00
	432	6,18468	5,31812E-001	4,93346E-005	0,00000E+000	5,31928E-001	0,00000E+000	8	...........	-32768,00
	435	6,22753	5,34815E-001	5,21541E-005	0,00000E+000	5,34929E-001	0,00000E+000	8	...........	-32768,00
	438	6,27038	5,37818E-001	5,50973E-005	0,00000E+000	5,37929E-001	0,00000E+000	8	...........	-32768,00
	441	6,31323	5,40821E-001	5,81006E-005	0,00000E+000	5,40929E-001	0,00000E+000	8	...........	-32768,00
	444	6,35608	5,43723E-001	6,11374E-005	0,00000E+000	5,43929E-001	0,00000E+000	8	...........	-32768,00
	447	6,39893	5,46726E-001	6,42710E-005	0,00000E+000	5,46930E-001	0,00000E+000	8	...........	-32768,00
	450	6,44178	5,49729E-001	6,74447E-005	0,00000E+000	5,49930E-001	0,00000E+000	8	...........	-32768,00
	453	6,48463	5,52632E-001	7,07286E-005	0,00000E+000	5,52930E-001	0,00000E+000	8	...........	-32768,00
	456	6,52748	5,55835E-001	7,40794E-005	0,00000E+000	5,55930E-001	0,00000E+000	8	...........	-32768,00
	459	6,57033	5,58738E-001	7,74869E-005	0,00000E+000	5,58918E-001	0,00000E+000	8	...........	-32768,00
	462	6,61318	5,61741E-001	8,09613E-005	0,00000E+000	5,61918E-001	0,00000E+000	8	...........	-32768,00
	465	6,65603	5,64944E-001	8,45225E-005	0,00000E+000	5,64918E-001	0,00000E+000	8	...........	-32768,00
	468	6,69888	5,67746E-001	8,81238E-005	0,00000E+000	5,67919E-001	0,00000E+000	8	...........	-32768,00
	471	6,74173	5,70749E-001	9,16819E-005	0,00000E+000	5,70919E-001	0,00000E+000	9	...........	-32768,00
	474	6,78458	5,73852E-001	9,53872E-005	0,00000E+000	5,73919E-001	0,00000E+000	9	...........	-32768,00
	477	6,82743	5,76755E-001	9,91258E-005	0,00000E+000	5,76919E-001	0,00000E+000	9	...........	-32768,00
	480	6,87028	5,79858E-001	1,02831E-004	0,00000E+000	5,79920E-001	0,00000E+000	9	...........	-32768,00
	483	6,91313	5,82861E-001	1,06570E-004	0,00000E+000	5,82920E-001	0,00000E+000	9	...........	-32768,00
	486	6,95598	5,85864E-001	1,10175E-004	0,00000E+000	5,85920E-001	0,00000E+000	9	...........	-32768,00
	489	6,99883	5,88767E-001	1,13913E-004	0,00000E+000	5,88920E-001	0,00000E+000	9	...........	-32768,00
	492	7,04168	5,91770E-001	1,17619E-004	0,00000E+000	5,91921E-001	0,00000E+000	9	...........	-32768,00
	495	7,08453	5,94772E-001	1,21391E-004	0,00000E+000	5,94921E-001	0,00000E+000	9	...........	-32768,00
	498	7,12738	5,97775E-001	1,25129E-004	0,00000E+000	5,97921E-001	0,00000E+000	9	...........	-32768,00
	501	7,17023	6,00878E-001	1,28901E-004	0,00000E+000	6,00921E-001	0,00000E+000	9	...........	-32768,00
	504	7,21308	6,03781E-001	1,32673E-004	0,00000E+000	6,03922E-001	0,00000E+000	9	...........	-32768,00
	507	7,25593	6,06784E-001	1,36512E-004	0,00000E+000	6,06909E-001	0,00000E+000	9	...........	-32768,00
	510	7,29878	6,09787E-001	1,40451E-004	0,00000E+000	6,09910E-001	0,00000E+000	9	...........	-32768,00
	513	7,34163	6,12790E-001	1,44323E-004	0,00000E+000	6,12910E-001	0,00000E+000	9	...........	-32768,00
	516	7,38448	6,15793E-001	1,48162E-004	0,00000E+000	6,15910E-001	0,00000E+000	9	...........	-32768,00
	519	7,42733	6,18796E-001	1,51867E-004	0,00000E+000	6,18910E-001	0,00000E+000	9	...........	-32768,00
	522	7,47018	6,21798E-001	1,55639E-004	0,00000E+000	6,21911E-001	0,00000E+000	9	...........	-32768,00
	525	7,51303	6,24801E-001	1,59211E-004	0,00000E+000	6,24911E-001	0,00000E+000	9	...........	-32768,00
	528	7,55588	6,27804E-001	1,62482E-004	0,00000E+000	6,27911E-001	0,00000E+000	9	...........	-32768,00
	531	7,59873	6,30807E-001	1,65186E-004	0,00000E+000	6,30911E-001	0,00000E+000	9	...........	-32768,00
	534	7,64158	6,33810E-001	1,67322E-004	0,00000E+000	6,33911E-001	0,00000E+000	9	...........	-32768,00
	537	7,68443	6,36713E-001	1,68457E-004	0,00000E+000	6,36912E-001	0,00000E+000	9	...........	-32768,00
	540	7,72728	6,39916E-001	1,68190E-004	0,00000E+000	6,39912E-001	0,00000E+000	9	...........	-32768,00
	543	7,77013	6,42819E-001	1,65920E-004	0,00000E+000	6,42912E-001	0,00000E+000	9	...........	-32768,00
	546	7,81298	6,45821E-001	1,60880E-004	0,00000E+000	6,45912E-001	0,00000E+000	9	...........	-32768,00
	549	7,85583	6,48924E-001	1,51800E-004	0,00000E+000	6,48913E-001	0,00000E+000	9	...........	-32768,00
	552	7,89868	6,51727E-001	1,36946E-004	0,00000E+000	6,51913E-001	0,00000E+000	9	...........	-32768,00
	555	7,94153	6,54830E-001	1,13546E-004	0,00000E+000	6,54913E-001	0,00000E+000	9	...........	-32768,00
	558	7,98438	6,57833E-001	7,96983E-005	0,00000E+000	6,57901E-001	0,00000E+000	9	...........	-32768,00
	561	8,02723	6,60836E-001	5,18568E-005	0,00000E+000	6,60901E-001	0,00000E+000	8	...........	-32768,00
	564	8,07008	6,63839E-001	4,07088E-005	0,00000E+000	6,63901E-001	0,00000E+000	8	...........	-32768,00
	567	8,11293	6,66942E-001	3,41609E-005	0,00000E+000	6,66902E-001	0,00000E+000	8	...........	-32768,00
	570	8,15578	6,69845E-001	2,96409E-005	0,00000E+000	6,69902E-001	0,00000E+000	8	...........	-32768,00
	573	8,19863	6,72847E-001	2,62233E-005	0,00000E+000	6,72902E-001	0,00000E+000	8	...........	-32768,00
	576	8,24148	6,75750E-001	2,36109E-005	0,00000E+000	6,75902E-001	0,00000E+000	8	...........	-32768,00
	579	8,28433	6,78853E-001	2,15430E-005	0,00000E+000	6,78903E-001	0,00000E+000	8	...........	-32768,00
	582	8,32718	6,81856E-001	1,98292E-005	0,00000E+000	6,81903E-001	0,00000E+000	8	...........	-32768,00
	585	8,37003	6,84759E-001	1,84027E-005	0,00000E+000	6,84903E-001	0,00000E+000	8	...........	-32768,00
	588	8,41288	6,87762E-001	1,72067E-005	0,00000E+000	6,87903E-001	0,00000E+000	8	...........	-32768,00
	591	8,45573	6,90865E-001	1,61811E-005	0,00000E+000	6,90904E-001	0,00000E+000	8	...........	-32768,00
	594	8,49858	6,93868E-001	1,52858E-005	0,00000E+000	6,93904E-001	0,00000E+000	8	...........	-32768,00
	597	8,54143	6,96770E-001	1,45141E-005	0,00000E+000	6,96904E-001	0,00000E+000	8	...........	-32768,00
	600	8,58428	6,99773E-001	1,38158E-005	0,00000E+000	6,99904E-001	0,00000E+000	8	...........	-32768,00
	603	8,62713	7,02776E-001	1,31911E-005	0,00000E+000	7,02905E-001	0,00000E+000	8	...........	-32768,00
	606	8,66998	7,05779E-001	1,26499E-005	0,00000E+000	7,05905E-001	0,00000E+000	8	...........	-32768,00
	609	8,71283	7,08782E-001	1,21455E-005	0,00000E+000	7,08893E-001	0,00000E+000	8	...........	-32768,00
	612	8,75568	7,11685E-001	1,16911E-005	0,00000E+000	7,11893E-001	0,00000E+000	8	...........	-32768,00
	615	8,79853	7,14888E-001	1,13036E-005	0,00000E+000	7,14893E-001	0,00000E+000	8	...........	-32768,00
	618	8,84138	7,17791E-001	1,09395E-005	0,00000E+000	7,17893E-001	0,00000E+000	8	...........	-32768,00
	621	8,88423	7,20793E-001	1,05920E-005	0,00000E+000	7,20894E-001	0,00000E+000	8	...........	-32768,00
	624	8,92708	7,23896E-001	1,02513E-005	0,00000E+000	7,23894E-001	0,00000E+000	8	...........	-32768,00
	627	8,96993	7,26799E-001	9,99405E-006	0,00000E+000	7,26894E-001	0,00000E+000	8	...........	-32768,00
	630	9,01278	7,29802E-001	9,76020E-006	0,00000E+000	7,29894E-001	0,00000E+000	8	...........	-32768,00
	633	9,05563	7,32905E-001	9,57980E-006	0,00000E+000	7,32894E-001	0,00000E+000	8	...........	-32768,00
	636	9,09848	7,35808E-001	9,29249E-006	0,00000E+000	7,35895E-001	0,00000E+000	8	...........	-32768,00
	639	9,14133	7,38811E-001	9,15886E-006	0,00000E+000	7,38895E-001	0,00000E+000	8	...........	-32768,00
	642	9,18418	7,41914E-001	8,99183E-006	0,00000E+000	7,41895E-001	0,00000E+000	8	...........	-32768,00
	645	9,22703	7,44917E-001	8,80140E-006	0,00000E+000	7,44895E-001	0,00000E+000	8	...........	-32768,00
	648	9,26988	7,47819E-001	8,60096E-006	0,00000E+000	7,47896E-001	0,00000E+000	8	...........	-32768,00
	651	9,31273	7,50822E-001	8,40386E-006	0,00000E+000	7,50896E-001	0,00000E+000	8	...........	-32768,00
	654	9,35558	7,53825E-001	8,26689E-006	0,00000E+000	7,53896E-001	0,00000E+000	8	...........	-32768,00
	657	9,39843	7,56828E-001	8,17001E-006	0,00000E+000	7,56896E-001	0,00000E+000	8	...........	-32768,00
	660	9,44128	7,59831E-001	8,00960E-006	0,00000E+000	7,59884E-001	0,00000E+000	7	...........	-32768,00
	663	9,48413	7,62834E-001	7,86123E-006	0,00000E+000	7,62884E-001	0,00000E+000	7	...........	-32768,00
	666	9,527	7,65837E-001	7,72490E-006	0,00000E+000	7,65885E-001	0,00000E+000	7	...........	-32768,00
	669	9,5698	7,68740E-001	7,63233E-006	0,00000E+000	7,68885E-001	0,00000E+000	7	...........	-32768,00
	672	9,6127	7,71842E-001	7,48865E-006	0,00000E+000	7,71885E-001	0,00000E+000	7	...........	-32768,00
	675	9,6555	7,74845E-001	7,38907E-006	0,00000E+000	7,74885E-001	0,00000E+000	7	...........	-32768,00
	678	9,6984	7,77848E-001	7,28348E-006	0,00000E+000	7,77886E-001	0,00000E+000	7	...........	-32768,00
	681	9,7412	7,80751E-001	7,20562E-006	0,00000E+000	7,80886E-001	0,00000E+000	7	...........	-32768,00
	684	9,7841	7,83854E-001	7,10136E-006	0,00000E+000	7,83886E-001	0,00000E+000	7	...........	-32768,00
	687	9,8269	7,86957E-001	7,03152E-006	0,00000E+000	7,86886E-001	0,00000E+000	7	...........	-32768,00
	690	9,8698	7,89760E-001	6,94063E-006	0,00000E+000	7,89887E-001	0,00000E+000	7	...........	-32768,00
	693	9,9126	7,92763E-001	6,87079E-006	0,00000E+000	7,92887E-001	0,00000E+000	7	...........	-32768,00
	696	9,9555	7,95765E-001	6,77622E-006	0,00000E+000	7,95887E-001	0,00000E+000	7	...........	-32768,00
	699	9,9983	7,98868E-001	6,72142E-006	0,00000E+000	7,98887E-001	0,00000E+000	7	...........	-32768,00
	702	10,0412	7,97868E-001	6,47448E-006	0,00000E+000	7,97887E-001	0,00000E+000	7	...........	-32768,00
	705	10,084	7,94865E-001	6,18343E-006	0,00000E+000	7,94887E-001	0,00000E+000	7	...........	-32768,00
	708	10,1269	7,91962E-001	5,92245E-006	0,00000E+000	7,91887E-001	0,00000E+000	7	...........	-32768,00
	711	10,1697	7,88759E-001	5,68286E-006	0,00000E+000	7,88886E-001	0,00000E+000	7	...........	-32768,00
	714	10,2126	7,85856E-001	5,45163E-006	0,00000E+000	7,85886E-001	0,00000E+000	7	...........	-32768,00
	717	10,2554	7,82953E-001	5,26049E-006	0,00000E+000	7,82886E-001	0,00000E+000	7	...........	-32768,00
	720	10,2983	7,79850E-001	5,07503E-006	0,00000E+000	7,79886E-001	0,00000E+000	7	...........	-32768,00
	723	10,3411	7,76747E-001	4,89993E-006	0,00000E+000	7,76886E-001	0,00000E+000	7	...........	-32768,00
	726	10,384	7,73844E-001	4,70512E-006	0,00000E+000	7,73885E-001	0,00000E+000	7	...........	-32768,00
	729	10,4268	7,70842E-001	4,55609E-006	0,00000E+000	7,70885E-001	0,00000E+000	7	...........	-32768,00
	732	10,4697	7,67839E-001	4,41942E-006	0,00000E+000	7,67885E-001	0,00000E+000	7	...........	-32768,00
	735	10,5125	7,64736E-001	4,28341E-006	0,00000E+000	7,64885E-001	0,00000E+000	7	...........	-32768,00
	738	10,5554	7,61833E-001	4,13672E-006	0,00000E+000	7,61884E-001	0,00000E+000	7	...........	-32768,00
	741	10,5982	7,58930E-001	4,00640E-006	0,00000E+000	7,58884E-001	0,00000E+000	7	...........	-32768,00
	744	10,6411	7,55827E-001	3,89679E-006	0,00000E+000	7,55896E-001	0,00000E+000	7	...........	-32768,00
	747	10,6839	7,52924E-001	3,78218E-006	0,00000E+000	7,52896E-001	0,00000E+000	7	...........	-32768,00
	750	10,7268	7,49821E-001	3,65720E-006	0,00000E+000	7,49896E-001	0,00000E+000	7	...........	-32768,00
	753	10,7696	7,46818E-001	3,56464E-006	0,00000E+000	7,46896E-001	0,00000E+000	7	...........	-32768,00
	756	10,8125	7,43816E-001	3,45704E-006	0,00000E+000	7,43895E-001	0,00000E+000	7	...........	-32768,00
	759	10,8553	7,40913E-001	3,38888E-006	0,00000E+000	7,40895E-001	0,00000E+000	7	...........	-32768,00
	762	10,8982	7,37810E-001	3,26825E-006	0,00000E+000	7,37895E-001	0,00000E+000	7	...........	-32768,00
	765	10,941	7,34807E-001	3,18805E-006	0,00000E+000	7,34895E-001	0,00000E+000	7	...........	-32768,00
	768	10,9839	7,31804E-001	3,10317E-006	0,00000E+000	7,31894E-001	0,00000E+000	7	...........	-32768,00
	771	11,0267	7,28801E-001	3,02732E-006	0,00000E+000	7,28894E-001	0,00000E+000	7	...........	-32768,00
	774	11,0696	7,25798E-001	2,94244E-006	0,00000E+000	7,25894E-001	0,00000E+000	7	...........	-32768,00
	777	11,1124	7,22795E-001	2,86158E-006	0,00000E+000	7,22894E-001	0,00000E+000	7	...........	-32768,00
	780	11,1553	7,19793E-001	2,80243E-006	0,00000E+000	7,19893E-001	0,00000E+000	7	...........	-32768,00
	783	11,1981	7,16790E-001	2,72858E-006	0,00000E+000	7,16893E-001	0,00000E+000	7	...........	-32768,00
	786	11,241	7,13887E-001	2,64070E-006	0,00000E+000	7,13893E-001	0,00000E+000	7	...........	-32768,00
	789	11,2838	7,10884E-001	2,58489E-006	0,00000E+000	7,10893E-001	0,00000E+000	7	...........	-32768,00
	792	11,3267	7,07681E-001	2,52040E-006	0,00000E+000	7,07905E-001	0,00000E+000	7	...........	-32768,00
	795	11,3695	7,04778E-001	2,46994E-006	0,00000E+000	7,04905E-001	0,00000E+000	7	...........	-32768,00
	798	11,4124	7,01775E-001	2,39309E-006	0,00000E+000	7,01904E-001	0,00000E+000	7	...........	-32768,00
	801	11,4552	6,98772E-001	2,33962E-006	0,00000E+000	6,98904E-001	0,00000E+000	7	...........	-32768,00
	804	11,4981	6,95870E-001	2,27613E-006	0,00000E+000	6,95904E-001	0,00000E+000	7	...........	-32768,00
	807	11,5409	6,92867E-001	2,23804E-006	0,00000E+000	6,92904E-001	0,00000E+000	7	...........	-32768,00
	810	11,5838	6,89764E-001	2,16887E-006	0,00000E+000	6,89903E-001	0,00000E+000	7	...........	-32768,00
	813	11,6266	6,86761E-001	2,12576E-006	0,00000E+000	6,86903E-001	0,00000E+000	7	...........	-32768,00
	816	11,6695	6,83858E-001	2,07497E-006	0,00000E+000	6,83903E-001	0,00000E+000	7	...........	-32768,00
	819	11,7123	6,80855E-001	2,02117E-006	0,00000E+000	6,80903E-001	0,00000E+000	7	...........	-32768,00
	822	11,7552	6,77752E-001	1,97573E-006	0,00000E+000	6,77903E-001	0,00000E+000	7	...........	-32768,00
	825	11,798	6,74749E-001	1,92092E-006	0,00000E+000	6,74902E-001	0,00000E+000	7	...........	-32768,00
	828	11,8409	6,71846E-001	1,88651E-006	0,00000E+000	6,71902E-001	0,00000E+000	7	...........	-32768,00
	831	11,8837	6,68844E-001	1,83304E-006	0,00000E+000	6,68902E-001	0,00000E+000	7	...........	-32768,00
	834	11,9266	6,65741E-001	1,79495E-006	0,00000E+000	6,65902E-001	0,00000E+000	7	...........	-32768,00
	837	11,9694	6,62838E-001	1,75451E-006	0,00000E+000	6,62901E-001	0,00000E+000	7	...........	-32768,00
	840	12,0123	6,59835E-001	1,70272E-006	0,00000E+000	6,59901E-001	0,00000E+000	7	...........	-32768,00
	843	12,0551	6,56732E-001	1,65594E-006	0,00000E+000	6,56913E-001	0,00000E+000	7	...........	-32768,00
	846	12,098	6,53829E-001	1,62219E-006	0,00000E+000	6,53913E-001	0,00000E+000	7	...........	-32768,00
	849	12,1408	6,50826E-001	1,57006E-006	0,00000E+000	6,50913E-001	0,00000E+000	7	...........	-32768,00
	852	12,1837	6,47823E-001	1,53832E-006	0,00000E+000	6,47913E-001	0,00000E+000	7	...........	-32768,00
	855	12,2265	6,44820E-001	1,49955E-006	0,00000E+000	6,44912E-001	0,00000E+000	7	...........	-32768,00
	858	12,2694	6,41818E-001	1,45945E-006	0,00000E+000	6,41912E-001	0,00000E+000	7	...........	-32768,00
	861	12,3122	6,38815E-001	1,41234E-006	0,00000E+000	6,38912E-001	0,00000E+000	7	...........	-32768,00
	864	12,3551	6,35912E-001	1,37792E-006	0,00000E+000	6,35912E-001	0,00000E+000	7	...........	-32768,00
	867	12,3979	6,32709E-001	1,33916E-006	0,00000E+000	6,32911E-001	0,00000E+000	7	...........	-32768,00
	870	12,4408	6,29806E-001	1,30574E-006	0,00000E+000	6,29911E-001	0,00000E+000	7	...........	-32768,00
	873	12,4836	6,26803E-001	1,26030E-006	0,00000E+000	6,26911E-001	0,00000E+000	7	...........	-32768,00
	876	12,5265	6,23800E-001	1,23423E-006	0,00000E+000	6,23911E-001	0,00000E+000	7	...........	-32768,00
	879	12,5693	6,20797E-001	1,18979E-006	0,00000E+000	6,20910E-001	0,00000E+000	7	...........	-32768,00
	882	12,6122	6,17795E-001	1,15170E-006	0,00000E+000	6,17910E-001	0,00000E+000	7	...........	-32768,00
	885	12,655	6,14792E-001	1,13031E-006	0,00000E+000	6,14910E-001	0,00000E+000	7	...........	-32768,00
	888	12,6979	6,11789E-001	1,08319E-006	0,00000E+000	6,11910E-001	0,00000E+000	7	...........	-32768,00
	891	12,7407	6,08786E-001	1,04744E-006	0,00000E+000	6,08909E-001	0,00000E+000	7	...........	-32768,00
	894	12,7836	6,05783E-001	1,01636E-006	0,00000E+000	6,05922E-001	0,00000E+000	7	...........	-32768,00
	897	12,8264	6,02880E-001	9,77266E-007	0,00000E+000	6,02922E-001	0,00000E+000	7	...........	-32768,00
	900	12,8693	5,99777E-001	9,31152E-007	0,00000E+000	5,99921E-001	0,00000E+000	7	...........	-32768,00
	903	12,9121	5,96874E-001	8,92390E-007	0,00000E+000	5,96921E-001	0,00000E+000	7	...........	-32768,00
	906	12,955	5,93671E-001	8,54296E-007	0,00000E+000	5,93921E-001	0,00000E+000	7	...........	-32768,00
	909	12,9978	5,90769E-001	8,14865E-007	0,00000E+000	5,90921E-001	0,00000E+000	7	...........	-32768,00
	912	13,0407	5,87766E-001	7,76103E-007	0,00000E+000	5,87920E-001	0,00000E+000	7	...........	-32768,00
	915	13,0835	5,84863E-001	7,26314E-007	0,00000E+000	5,84920E-001	0,00000E+000	7	...........	-32768,00
	918	13,1264	5,81760E-001	6,79532E-007	0,00000E+000	5,81920E-001	0,00000E+000	7	...........	-32768,00
	921	13,1692	5,78757E-001	6,40770E-007	0,00000E+000	5,78920E-001	0,00000E+000	7	...........	-32768,00
	924	13,2121	5,75754E-001	5,86970E-007	0,00000E+000	5,75919E-001	0,00000E+000	7	...........	-32768,00
	927	13,2549	5,72751E-001	5,40522E-007	0,00000E+000	5,72919E-001	0,00000E+000	7	...........	-32768,00
	930	13,2978	5,69748E-001	4,87057E-007	0,00000E+000	5,69919E-001	0,00000E+000	7	...........	-32768,00
	933	13,3406	5,66846E-001	4,45956E-007	0,00000E+000	5,66919E-001	0,00000E+000	7	...........	-32768,00
	936	13,3835	5,63743E-001	4,03518E-007	0,00000E+000	5,63918E-001	0,00000E+000	7	...........	-32768,00
	939	13,4263	5,60740E-001	3,52058E-007	0,00000E+000	5,60918E-001	0,00000E+000	7	...........	-32768,00
	942	13,4692	5,57837E-001	3,29001E-007	0,00000E+000	5,57918E-001	0,00000E+000	7	...........	-32768,00
	945	13,512	5,54834E-001	2,75536E-007	0,00000E+000	5,54930E-001	0,00000E+000	7	...........	-32768,00
	948	13,5549	5,51831E-001	2,44794E-007	0,00000E+000	5,51930E-001	0,00000E+000	7	...........	-32768,00
	951	13,5977	5,48828E-001	2,09039E-007	0,00000E+000	5,48930E-001	0,00000E+000	7	...........	-32768,00
	954	13,6406	5,45825E-001	1,82306E-007	0,00000E+000	5,45929E-001	0,00000E+000	7	...........	-32768,00
	957	13,6834	5,42822E-001	1,76626E-007	0,00000E+000	5,42929E-001	0,00000E+000	7	...........	-32768,00
	960	13,7263	5,39720E-001	1,41873E-007	0,00000E+000	5,39929E-001	0,00000E+000	7	...........	-32768,00
	963	13,7691	5,36717E-001	1,22158E-007	0,00000E+000	5,36929E-001	0,00000E+000	7	...........	-32768,00
	966	13,812	5,33814E-001	1,12133E-007	0,00000E+000	5,33929E-001	0,00000E+000	7	...........	-32768,00
	969	13,8548	5,30811E-001	9,14155E-008	0,00000E+000	5,30928E-001	0,00000E+000	7	...........	-32768,00
	972	13,8977	5,27808E-001	7,00295E-008	0,00000E+000	5,27928E-001	0,00000E+000	7	...........	-32768,00
	975	13,9405	5,24805E-001	6,06731E-008	0,00000E+000	5,24928E-001	0,00000E+000	7	...........	-32768,00
	978	13,9834	5,21802E-001	5,19850E-008	0,00000E+000	5,21928E-001	0,00000E+000	7	...........	-32768,00
	981	14,0262	5,18799E-001	3,52772E-008	0,00000E+000	5,18927E-001	0,00000E+000	7	...........	-32768,00
	984	14,0691	5,15796E-001	1,99060E-008	0,00000E+000	5,15927E-001	0,00000E+000	7	...........	-32768,00
	987	14,1119	5,12794E-001	6,53967E-009	0,00000E+000	5,12927E-001	0,00000E+000	7	...........	-32768,00
	990	14,1548	5,09791E-001	1,86148E-009	0,00000E+000	5,09927E-001	0,00000E+000	7	...........	-32768,00
	993	14,1976	5,06688E-001	-2,21978E-008	0,00000E+000	5,06926E-001	0,00000E+000	7	...........	-32768,00
	996	14,2405	5,03885E-001	-3,69007E-008	0,00000E+000	5,03939E-001	0,00000E+000	7	...........	-32768,00
	999	14,2833	5,00782E-001	-4,79279E-008	0,00000E+000	5,00938E-001	0,00000E+000	7	...........	-32768,00
	1002	14,3262	4,97779E-001	-5,72843E-008	0,00000E+000	4,97938E-001	0,00000E+000	7	...........	-32768,00
	1005	14,369	4,94776E-001	-6,46358E-008	0,00000E+000	4,94938E-001	0,00000E+000	7	...........	-32768,00
	1008	14,4119	4,91773E-001	-8,76926E-008	0,00000E+000	4,91938E-001	0,00000E+000	7	...........	-32768,00
	1011	14,4547	4,88871E-001	-9,70490E-008	0,00000E+000	4,88937E-001	0,00000E+000	7	...........	-32768,00
	1014	14,4976	4,85768E-001	-1,30131E-007	0,00000E+000	4,85937E-001	0,00000E+000	7	...........	-32768,00
	1017	14,5404	4,82765E-001	-1,49512E-007	0,00000E+000	4,82937E-001	0,00000E+000	7	...........	-32768,00
	1020	14,5833	4,79862E-001	-1,64883E-007	0,00000E+000	4,79937E-001	0,00000E+000	7	...........	-32768,00
	1023	14,6261	4,76859E-001	-1,86937E-007	0,00000E+000	4,76936E-001	0,00000E+000	7	...........	-32768,00
	1026	14,669	4,73756E-001	-2,18348E-007	0,00000E+000	4,73936E-001	0,00000E+000	7	...........	-32768,00
	1029	14,7118	4,70753E-001	-2,36058E-007	0,00000E+000	4,70936E-001	0,00000E+000	7	...........	-32768,00
	1032	14,7547	4,67750E-001	-2,64127E-007	0,00000E+000	4,67936E-001	0,00000E+000	7	...........	-32768,00
	1035	14,7975	4,64747E-001	-3,09239E-007	0,00000E+000	4,64935E-001	0,00000E+000	7	...........	-32768,00
	1038	14,8404	4,61845E-001	-3,37308E-007	0,00000E+000	4,61935E-001	0,00000E+000	7	...........	-32768,00
	1041	14,8832	4,58842E-001	-3,74065E-007	0,00000E+000	4,58935E-001	0,00000E+000	7	...........	-32768,00
	1044	14,9261	4,55739E-001	-4,07815E-007	0,00000E+000	4,55935E-001	0,00000E+000	7	...........	-32768,00
	1047	14,9689	4,52836E-001	-4,66627E-007	0,00000E+000	4,52947E-001	0,00000E+000	7	...........	-32768,00
	1050	15,0118	4,49833E-001	-5,27109E-007	0,00000E+000	4,49947E-001	0,00000E+000	7	...........	-32768,00
	1053	15,0546	4,46830E-001	-6,40054E-007	0,00000E+000	4,46947E-001	0,00000E+000	7	...........	-32768,00
	1056	15,0975	4,43727E-001	-8,66278E-007	0,00000E+000	4,43946E-001	0,00000E+000	7	...........	-32768,00
	1059	15,1403	4,40724E-001	-1,31940E-006	0,00000E+000	4,40946E-001	0,00000E+000	7	...........	-32768,00
	1062	15,1832	4,37721E-001	-2,04953E-006	0,00000E+000	4,37946E-001	0,00000E+000	7	...........	-32768,00
	1065	15,226	4,34719E-001	-3,14690E-006	0,00000E+000	4,34946E-001	0,00000E+000	7	...........	-32768,00
	1068	15,2689	4,31716E-001	-4,67500E-006	0,00000E+000	4,31945E-001	0,00000E+000	7	...........	-32768,00
	1071	15,3117	4,28713E-001	-6,71870E-006	0,00000E+000	4,28945E-001	0,00000E+000	7	...........	-32768,00
	1074	15,3546	4,25910E-001	-9,30942E-006	0,00000E+000	4,25945E-001	0,00000E+000	7	...........	-32768,00
	1077	15,3974	4,22807E-001	-1,24858E-005	0,00000E+000	4,22945E-001	0,00000E+000	8	...........	-32768,00
	1080	15,4403	4,19804E-001	-1,61305E-005	0,00000E+000	4,19944E-001	0,00000E+000	8	...........	-32768,00
	1083	15,4831	4,16801E-001	-2,01427E-005	0,00000E+000	4,16944E-001	0,00000E+000	8	...........	-32768,00
	1086	15,526	4,13899E-001	-2,43888E-005	0,00000E+000	4,13944E-001	0,00000E+000	8	...........	-32768,00
	1089	15,5688	4,10696E-001	-2,87084E-005	0,00000E+000	4,10944E-001	0,00000E+000	8	...........	-32768,00
	1092	15,6117	4,07793E-001	-3,29511E-005	0,00000E+000	4,07943E-001	0,00000E+000	8	...........	-32768,00
	1095	15,6545	4,04790E-001	-3,69633E-005	0,00000E+000	4,04943E-001	0,00000E+000	8	...........	-32768,00
	1098	15,6974	4,01787E-001	-4,06949E-005	0,00000E+000	4,01955E-001	0,00000E+000	8	...........	-32768,00
	1101	15,7402	3,98784E-001	-4,40290E-005	0,00000E+000	3,98955E-001	0,00000E+000	8	...........	-32768,00
	1104	15,7831	3,95781E-001	-4,69288E-005	0,00000E+000	3,95955E-001	0,00000E+000	8	...........	-32768,00
	1107	15,8259	3,92778E-001	-4,93742E-005	0,00000E+000	3,92955E-001	0,00000E+000	8	...........	-32768,00
	1110	15,8688	3,89775E-001	-5,13920E-005	0,00000E+000	3,89954E-001	0,00000E+000	8	...........	-32768,00
	1113	15,9116	3,86773E-001	-5,29788E-005	0,00000E+000	3,86954E-001	0,00000E+000	8	...........	-32768,00
	1116	15,9545	3,83770E-001	-5,41648E-005	0,00000E+000	3,83954E-001	0,00000E+000	8	...........	-32768,00
	1119	15,9973	3,80767E-001	-5,49966E-005	0,00000E+000	3,80954E-001	0,00000E+000	8	...........	-32768,00
	1122	16,0402	3,77864E-001	-5,54877E-005	0,00000E+000	3,77953E-001	0,00000E+000	8	...........	-32768,00
	1125	16,083	3,74761E-001	-5,56948E-005	0,00000E+000	3,74953E-001	0,00000E+000	8	...........	-32768,00
	1128	16,1259	3,71758E-001	-5,56247E-005	0,00000E+000	3,71953E-001	0,00000E+000	8	...........	-32768,00
	1131	16,1687	3,68755E-001	-5,53741E-005	0,00000E+000	3,68953E-001	0,00000E+000	8	...........	-32768,00
	1134	16,2116	3,65852E-001	-5,49265E-005	0,00000E+000	3,65953E-001	0,00000E+000	8	...........	-32768,00
	1137	16,2544	3,62850E-001	-5,43151E-005	0,00000E+000	3,62952E-001	0,00000E+000	8	...........	-32768,00
	1140	16,2973	3,59847E-001	-5,36102E-005	0,00000E+000	3,59952E-001	0,00000E+000	8	...........	-32768,00
	1143	16,3401	3,56844E-001	-5,28018E-005	0,00000E+000	3,56952E-001	0,00000E+000	8	...........	-32768,00
	1146	16,383	3,53841E-001	-5,19465E-005	0,00000E+000	3,53952E-001	0,00000E+000	8	...........	-32768,00
	1149	16,4258	3,50738E-001	-5,10111E-005	0,00000E+000	3,50964E-001	0,00000E+000	8	...........	-32768,00
	1152	16,4687	3,47835E-001	-5,00557E-005	0,00000E+000	3,47964E-001	0,00000E+000	8	...........	-32768,00
	1155	16,5115	3,44732E-001	-4,90935E-005	0,00000E+000	3,44963E-001	0,00000E+000	8	...........	-32768,00
	1158	16,5544	3,41929E-001	-4,81314E-005	0,00000E+000	3,41963E-001	0,00000E+000	8	...........	-32768,00
	1161	16,5972	3,38726E-001	-4,71793E-005	0,00000E+000	3,38963E-001	0,00000E+000	8	...........	-32768,00
	1164	16,6401	3,35824E-001	-4,62038E-005	0,00000E+000	3,35963E-001	0,00000E+000	8	...........	-32768,00
	1167	16,6829	3,32721E-001	-4,52918E-005	0,00000E+000	3,32962E-001	0,00000E+000	8	...........	-32768,00
	1170	16,7258	3,29918E-001	-4,43865E-005	0,00000E+000	3,29962E-001	0,00000E+000	8	...........	-32768,00
	1173	16,7686	3,26715E-001	-4,34611E-005	0,00000E+000	3,26962E-001	0,00000E+000	8	...........	-32768,00
	1176	16,8115	3,23812E-001	-4,25490E-005	0,00000E+000	3,23962E-001	0,00000E+000	8	...........	-32768,00
	1179	16,8543	3,20809E-001	-4,16838E-005	0,00000E+000	3,20961E-001	0,00000E+000	8	...........	-32768,00
	1182	16,8972	3,17906E-001	-4,08386E-005	0,00000E+000	3,17961E-001	0,00000E+000	8	...........	-32768,00
	1185	16,94	3,14803E-001	-4,00067E-005	0,00000E+000	3,14961E-001	0,00000E+000	8	...........	-32768,00
	1188	16,9829	3,11801E-001	-3,92183E-005	0,00000E+000	3,11961E-001	0,00000E+000	8	...........	-32768,00
	1191	17,0257	3,08798E-001	-3,84199E-005	0,00000E+000	3,08960E-001	0,00000E+000	8	...........	-32768,00
	1194	17,0686	3,05895E-001	-3,76749E-005	0,00000E+000	3,05960E-001	0,00000E+000	8	...........	-32768,00
	1197	17,1114	3,02792E-001	-3,69700E-005	0,00000E+000	3,02960E-001	0,00000E+000	8	...........	-32768,00
	1200	17,1543	2,99789E-001	-3,62885E-005	0,00000E+000	2,99972E-001	0,00000E+000	8	...........	-32768,00
	1203	17,1971	2,96786E-001	-3,55435E-005	0,00000E+000	2,96972E-001	0,00000E+000	8	...........	-32768,00
	1206	17,24	2,93783E-001	-3,48587E-005	0,00000E+000	2,93972E-001	0,00000E+000	8	...........	-32768,00
	1209	17,2828	2,90780E-001	-3,42072E-005	0,00000E+000	2,90972E-001	0,00000E+000	8	...........	-32768,00
	1212	17,3257	2,87777E-001	-3,35691E-005	0,00000E+000	2,87971E-001	0,00000E+000	8	...........	-32768,00
	1215	17,3685	2,84775E-001	-3,29545E-005	0,00000E+000	2,84971E-001	0,00000E+000	8	...........	-32768,00
	1218	17,4114	2,81772E-001	-3,23364E-005	0,00000E+000	2,81971E-001	0,00000E+000	8	...........	-32768,00
	1221	17,4542	2,78869E-001	-3,17652E-005	0,00000E+000	2,78971E-001	0,00000E+000	8	...........	-32768,00
	1224	17,4971	2,75766E-001	-3,12072E-005	0,00000E+000	2,75970E-001	0,00000E+000	8	...........	-32768,00
	1227	17,5399	2,72863E-001	-3,06661E-005	0,00000E+000	2,72970E-001	0,00000E+000	8	...........	-32768,00
	1230	17,5828	2,69760E-001	-3,01416E-005	0,00000E+000	2,69970E-001	0,00000E+000	8	...........	-32768,00
	1233	17,6256	2,66757E-001	-2,96404E-005	0,00000E+000	2,66970E-001	0,00000E+000	8	...........	-32768,00
	1236	17,6685	2,63754E-001	-2,91460E-005	0,00000E+000	2,63969E-001	0,00000E+000	8	...........	-32768,00
	1239	17,7113	2,60852E-001	-2,86750E-005	0,00000E+000	2,60969E-001	0,00000E+000	8	...........	-32768,00
	1242	17,7542	2,57849E-001	-2,82173E-005	0,00000E+000	2,57969E-001	0,00000E+000	8	...........	-32768,00
	1245	17,797	2,54746E-001	-2,77797E-005	0,00000E+000	2,54969E-001	0,00000E+000	8	...........	-32768,00
	1248	17,8399	2,51743E-001	-2,73554E-005	0,00000E+000	2,51981E-001	0,00000E+000	8	...........	-32768,00
	1251	17,8827	2,48840E-001	-2,69211E-005	0,00000E+000	2,48981E-001	0,00000E+000	8	...........	-32768,00
	1254	17,9256	2,45837E-001	-2,65269E-005	0,00000E+000	2,45980E-001	0,00000E+000	8	...........	-32768,00
	1257	17,9684	2,42734E-001	-2,61494E-005	0,00000E+000	2,42980E-001	0,00000E+000	8	...........	-32768,00
	1260	18,0113	2,39831E-001	-2,57685E-005	0,00000E+000	2,39980E-001	0,00000E+000	8	...........	-32768,00
	1263	18,0541	2,36828E-001	-2,54144E-005	0,00000E+000	2,36980E-001	0,00000E+000	8	...........	-32768,00
	1266	18,097	2,33926E-001	-2,50636E-005	0,00000E+000	2,33979E-001	0,00000E+000	8	...........	-32768,00
	1269	18,1398	2,30823E-001	-2,47262E-005	0,00000E+000	2,30979E-001	0,00000E+000	8	...........	-32768,00
	1272	18,1827	2,27820E-001	-2,43988E-005	0,00000E+000	2,27979E-001	0,00000E+000	8	...........	-32768,00
	1275	18,2255	2,24817E-001	-2,40915E-005	0,00000E+000	2,24979E-001	0,00000E+000	8	...........	-32768,00
	1278	18,2684	2,21814E-001	-2,37741E-005	0,00000E+000	2,21978E-001	0,00000E+000	8	...........	-32768,00
	1281	18,3112	2,18711E-001	-2,34768E-005	0,00000E+000	2,18978E-001	0,00000E+000	8	...........	-32768,00
	1284	18,3541	2,15808E-001	-2,31995E-005	0,00000E+000	2,15978E-001	0,00000E+000	8	...........	-32768,00
	1287	18,3969	2,12805E-001	-2,29222E-005	0,00000E+000	2,12978E-001	0,00000E+000	8	...........	-32768,00
	1290	18,4398	2,09803E-001	-2,26449E-005	0,00000E+000	2,09978E-001	0,00000E+000	8	...........	-32768,00
	1293	18,4826	2,06800E-001	-2,23810E-005	0,00000E+000	2,06977E-001	0,00000E+000	8	...........	-32768,00
	1296	18,5255	2,03697E-001	-2,21405E-005	0,00000E+000	2,03977E-001	0,00000E+000	8	...........	-32768,00
	1299	18,5683	2,00894E-001	-2,18966E-005	0,00000E+000	2,00989E-001	0,00000E+000	8	...........	-32768,00
	1302	18,6112	1,97791E-001	-2,16862E-005	0,00000E+000	1,97989E-001	0,00000E+000	8	...........	-32768,00
	1305	18,654	1,94788E-001	-2,14790E-005	0,00000E+000	1,94989E-001	0,00000E+000	8	...........	-32768,00
	1308	18,6969	1,91785E-001	-2,12418E-005	0,00000E+000	1,91989E-001	0,00000E+000	8	...........	-32768,00
	1311	18,7397	1,88782E-001	-2,09846E-005	0,00000E+000	1,88988E-001	0,00000E+000	8	...........	-32768,00
	1314	18,7826	1,85880E-001	-2,07975E-005	0,00000E+000	1,85988E-001	0,00000E+000	8	...........	-32768,00
	1317	18,8254	1,82777E-001	-2,05971E-005	0,00000E+000	1,82988E-001	0,00000E+000	8	...........	-32768,00
	1320	18,8683	1,79774E-001	-2,03799E-005	0,00000E+000	1,79988E-001	0,00000E+000	8	...........	-32768,00
	1323	18,9111	1,76771E-001	-2,01761E-005	0,00000E+000	1,76987E-001	0,00000E+000	8	...........	-32768,00
	1326	18,954	1,73768E-001	-1,99957E-005	0,00000E+000	1,73987E-001	0,00000E+000	8	...........	-32768,00
	1329	18,9968	1,70665E-001	-1,97986E-005	0,00000E+000	1,70987E-001	0,00000E+000	8	...........	-32768,00
	1332	19,0397	1,67762E-001	-1,96216E-005	0,00000E+000	1,67987E-001	0,00000E+000	8	...........	-32768,00
	1335	19,0825	1,64759E-001	-1,94345E-005	0,00000E+000	1,64986E-001	0,00000E+000	8	...........	-32768,00
	1338	19,1254	1,61856E-001	-1,92641E-005	0,00000E+000	1,61986E-001	0,00000E+000	8	...........	-32768,00
	1341	19,1682	1,58854E-001	-1,90937E-005	0,00000E+000	1,58986E-001	0,00000E+000	8	...........	-32768,00
	1344	19,2111	1,55751E-001	-1,89367E-005	0,00000E+000	1,55986E-001	0,00000E+000	8	...........	-32768,00
	1347	19,2539	1,52748E-001	-1,87663E-005	0,00000E+000	1,52985E-001	0,00000E+000	8	...........	-32768,00
	1350	19,2968	1,49845E-001	-1,86160E-005	0,00000E+000	1,49998E-001	0,00000E+000	8	...........	-32768,00
	1353	19,3396	1,46742E-001	-1,84590E-005	0,00000E+000	1,46997E-001	0,00000E+000	8	...........	-32768,00
	1356	19,3825	1,43739E-001	-1,83153E-005	0,00000E+000	1,43997E-001	0,00000E+000	8	...........	-32768,00
	1359	19,4253	1,40736E-001	-1,81784E-005	0,00000E+000	1,40997E-001	0,00000E+000	8	...........	-32768,00
	1362	19,4682	1,37733E-001	-1,80381E-005	0,00000E+000	1,37997E-001	0,00000E+000	8	...........	-32768,00
	1365	19,511	1,34831E-001	-1,78978E-005	0,00000E+000	1,34997E-001	0,00000E+000	8	...........	-32768,00
	1368	19,5539	1,31828E-001	-1,77675E-005	0,00000E+000	1,31996E-001	0,00000E+000	8	...........	-32768,00
	1371	19,5967	1,28825E-001	-1,76338E-005	0,00000E+000	1,28996E-001	0,00000E+000	8	...........	-32768,00
	1374	19,6396	1,25722E-001	-1,75203E-005	0,00000E+000	1,25996E-001	0,00000E+000	8	...........	-32768,00
	1377	19,6824	1,22819E-001	-1,73966E-005	0,00000E+000	1,22996E-001	0,00000E+000	8	...........	-32768,00
	1380	19,7253	1,19816E-001	-1,72864E-005	0,00000E+000	1,19995E-001	0,00000E+000	8	...........	-32768,00
	1383	19,7681	1,16813E-001	-1,71828E-005	0,00000E+000	1,16995E-001	0,00000E+000	8	...........	-32768,00
	1386	19,811	1,13810E-001	-1,70693E-005	0,00000E+000	1,13995E-001	0,00000E+000	8	...........	-32768,00
	1389	19,8538	1,10707E-001	-1,69523E-005	0,00000E+000	1,10995E-001	0,00000E+000	8	...........	-32768,00
	1392	19,8967	1,07805E-001	-1,68655E-005	0,00000E+000	1,07994E-001	0,00000E+000	8	...........	-32768,00
	1395	19,9395	1,04702E-001	-1,67786E-005	0,00000E+000	1,04994E-001	0,00000E+000	8	...........	-32768,00
	1398	19,9824	1,01799E-001	-1,66750E-005	0,00000E+000	1,01994E-001	0,00000E+000	8	...........	-32768,00
	1400	20,011	9,96967E-002	-1,66249E-005	0,00000E+000	1,00006E-001	0,00000E+000	8	...........	-32768,00