File: HOPG_cv/1mM/AgNO3_HOPG_1mM_4_50mv_cv.DTA
EXPLAIN
TAG	CV
TITLE	LABEL	Cyclic Voltammetry	Test &Identifier
DATE	LABEL	7/4/2022	Date
TIME	LABEL	20:04:13	Time
NOTES	NOTES	2	&Notes...
	07/04/22 , 1mM  AgNO3

PSTAT	PSTAT	IFC1000-09004	Potentiostat
VINIT	POTEN	1,00000E-001	F	Initial &E (V)
VLIMIT1	POTEN	1,00000E-001	F	Scan Limit &1 (V)
VLIMIT2	POTEN	8,00000E-001	F	Scan Limit &2 (V)
VFINAL	POTEN	1,00000E-001	F	Final &E (V)
SCANRATE	QUANT	4,99999E+001	&Scan Rate (mV/s)
STEPSIZE	QUANT	1,00000E+000	St&ep Size (mV)
CYCLES	IQUANT	1	C&ycles (#)
IMODE	SELECTOR	0	I/E Range &Mode
IRANGE	QUANT	1,00000E-005	&Max Current (mA)
AREA	QUANT	1,00000E+000	Electrode &Area (cm^2)
ELECTRODETYPE	SELECTOR	0	Electrode Type
STRIPPING	TOGGLE	F	Used for Stripping
POLARITY	TOGGLE	F	Signal Polarity
CONDIT	TWOPARAM	F	1,50000E+001	0,00000E+000	Conditionin&g	Time(s)	E(V)
DELAY	TWOPARAM	F	3,00000E+001	0,00000E+000	Init. De&lay	Time(s)	Stab.(mV/s)
EQDELAY	QUANT	1,00000E+001	Equil. &Time (s)
IRCOMP	SELECTOR	0	IRCom&p
PFCOR	QUANT	5,00000E+001	PF Corr. (ohm)
SAMPLINGMODE	SELECTOR	0	Sampling &Mode
EOC	QUANT	0	Open Circuit (V)
PSTATMODEL	IQUANT	48	Pstat Model
PSTATSECTION	LABEL	IFC1000-09004	Pstat Section
PSTATSERIALNO	LABEL	09004	Pstat Serial Number
CTRLMODE	IQUANT	1	Control Mode
ELECTROMETER	IQUANT	0	RE=0 or CS=1
IESTAB	IQUANT	2	I/E Stability
CASPEED	IQUANT	4	Control Amp Speed
CONVENTION	IQUANT	1	Current Convention
ICHRANGE	IQUANT	2	Ich Range
ICHRANGEMODE	TOGGLE	F	Ich Auto Range
ICHOFFSETENABLE	TOGGLE	F	Ich Offset Enable
ICHOFFSET	QUANT	0	Ich Offset (V)
ICHFILTER	IQUANT	3	Ich Filter
VCHRANGE	IQUANT	2	Vch Range
VCHRANGEMODE	TOGGLE	F	Vch Auto Range
VCHOFFSETENABLE	TOGGLE	F	Vch Offset Enable
VCHOFFSET	QUANT	0	Vch Offset (V)
VCHFILTER	IQUANT	3	Vch Filter
IERANGELOWERLIMIT	IQUANT	4	I/E Range Lower Limit
IERANGEMODE	TOGGLE	T	I/E AutoRange
IERANGE	IQUANT	5	I/E Range
ACHSELECT	IQUANT	0	Ach Select
ACHRANGE	IQUANT	2	Ach Range
ACHOFFSETENABLE	TOGGLE	F	Ach Offset Enable
ACHOFFSET	QUANT	0	Ach Offset (V)
ACHFILTER	IQUANT	1	Ach Filter
CABLEID	IQUANT	14	Cable ID
DCCALDATE	LABEL	3/18/2022	DC Calibration Date
ACCALDATE	LABEL	3/10/2016	AC Calibration Date
FRAMEWORKVERSION	QUANT	7,05	Framework Version
INSTRUMENTVERSION	LABEL	4.21	Instrument Version
CURVE1	TABLE
	Pt	T	Vf	Im	Vu	Sig	Ach	IERange	Over	Temp
	#	s	V vs. Ref.	A	V	V	V	#	bits	deg C
	0	0,02	9,98969E-002	-7,35728E-006	0,00000E+000	1,00006E-001	0,00000E+000	7	...........	-32768,00
	3	0,08	1,02800E-001	-7,20858E-006	0,00000E+000	1,02994E-001	0,00000E+000	7	...........	-32768,00
	6	0,14	1,05803E-001	-7,09095E-006	0,00000E+000	1,05994E-001	0,00000E+000	7	...........	-32768,00
	9	0,2	1,08705E-001	-7,02746E-006	0,00000E+000	1,08994E-001	0,00000E+000	7	...........	-32768,00
	12	0,26	1,11808E-001	-6,93223E-006	0,00000E+000	1,11995E-001	0,00000E+000	7	...........	-32768,00
	15	0,32	1,14811E-001	-6,86841E-006	0,00000E+000	1,14995E-001	0,00000E+000	7	...........	-32768,00
	18	0,38	1,17914E-001	-6,78186E-006	0,00000E+000	1,17995E-001	0,00000E+000	7	...........	-32768,00
	21	0,44	1,20717E-001	-6,73307E-006	0,00000E+000	1,20995E-001	0,00000E+000	7	...........	-32768,00
	24	0,5	1,23720E-001	-6,67660E-006	0,00000E+000	1,23996E-001	0,00000E+000	7	...........	-32768,00
	27	0,56	1,26723E-001	-6,62815E-006	0,00000E+000	1,26996E-001	0,00000E+000	7	...........	-32768,00
	30	0,62	1,29826E-001	-6,57234E-006	0,00000E+000	1,29996E-001	0,00000E+000	7	...........	-32768,00
	33	0,68	1,32729E-001	-6,52055E-006	0,00000E+000	1,32996E-001	0,00000E+000	7	...........	-32768,00
	36	0,74	1,35831E-001	-6,46374E-006	0,00000E+000	1,35997E-001	0,00000E+000	7	...........	-32768,00
	39	0,8	1,38734E-001	-6,41061E-006	0,00000E+000	1,38997E-001	0,00000E+000	7	...........	-32768,00
	42	0,86	1,41737E-001	-6,38120E-006	0,00000E+000	1,41997E-001	0,00000E+000	7	...........	-32768,00
	45	0,92	1,44840E-001	-6,32206E-006	0,00000E+000	1,44997E-001	0,00000E+000	7	...........	-32768,00
	48	0,98	1,47743E-001	-6,27962E-006	0,00000E+000	1,47998E-001	0,00000E+000	7	...........	-32768,00
	51	1,04	1,50746E-001	-6,24052E-006	0,00000E+000	1,50998E-001	0,00000E+000	7	...........	-32768,00
	54	1,1	1,53749E-001	-6,20845E-006	0,00000E+000	1,53998E-001	0,00000E+000	7	...........	-32768,00
	57	1,16	1,56852E-001	-6,16300E-006	0,00000E+000	1,56998E-001	0,00000E+000	7	...........	-32768,00
	60	1,22	1,59754E-001	-6,13994E-006	0,00000E+000	1,59999E-001	0,00000E+000	7	...........	-32768,00
	63	1,28	1,62757E-001	-6,10820E-006	0,00000E+000	1,62999E-001	0,00000E+000	7	...........	-32768,00
	66	1,34	1,65760E-001	-6,07111E-006	0,00000E+000	1,65999E-001	0,00000E+000	7	...........	-32768,00
	69	1,4	1,68863E-001	-6,05072E-006	0,00000E+000	1,68999E-001	0,00000E+000	7	...........	-32768,00
	72	1,46	1,71866E-001	-6,00996E-006	0,00000E+000	1,71999E-001	0,00000E+000	7	...........	-32768,00
	75	1,52	1,74769E-001	-5,98289E-006	0,00000E+000	1,75000E-001	0,00000E+000	7	...........	-32768,00
	78	1,58	1,77772E-001	-5,95850E-006	0,00000E+000	1,78000E-001	0,00000E+000	7	...........	-32768,00
	81	1,64	1,80775E-001	-5,92174E-006	0,00000E+000	1,81000E-001	0,00000E+000	7	...........	-32768,00
	84	1,7	1,83878E-001	-5,89501E-006	0,00000E+000	1,84000E-001	0,00000E+000	7	...........	-32768,00
	87	1,76	1,86780E-001	-5,86861E-006	0,00000E+000	1,87001E-001	0,00000E+000	7	...........	-32768,00
	90	1,82	1,89783E-001	-5,85056E-006	0,00000E+000	1,90001E-001	0,00000E+000	7	...........	-32768,00
	93	1,88	1,92886E-001	-5,83018E-006	0,00000E+000	1,93001E-001	0,00000E+000	7	...........	-32768,00
	96	1,94	1,95689E-001	-5,82049E-006	0,00000E+000	1,96001E-001	0,00000E+000	7	...........	-32768,00
	99	2	1,98792E-001	-5,79610E-006	0,00000E+000	1,99002E-001	0,00000E+000	7	...........	-32768,00
	102	2,06	2,01795E-001	-5,76134E-006	0,00000E+000	2,02002E-001	0,00000E+000	7	...........	-32768,00
	105	2,12	2,04798E-001	-5,74397E-006	0,00000E+000	2,05002E-001	0,00000E+000	7	...........	-32768,00
	108	2,18	2,07801E-001	-5,72158E-006	0,00000E+000	2,08002E-001	0,00000E+000	7	...........	-32768,00
	111	2,24	2,10803E-001	-5,70487E-006	0,00000E+000	2,11003E-001	0,00000E+000	7	...........	-32768,00
	114	2,3	2,13806E-001	-5,68582E-006	0,00000E+000	2,14003E-001	0,00000E+000	7	...........	-32768,00
	117	2,36	2,16809E-001	-5,64506E-006	0,00000E+000	2,17003E-001	0,00000E+000	7	...........	-32768,00
	120	2,42	2,19912E-001	-5,64740E-006	0,00000E+000	2,20003E-001	0,00000E+000	7	...........	-32768,00
	123	2,48	2,22815E-001	-5,61599E-006	0,00000E+000	2,23004E-001	0,00000E+000	7	...........	-32768,00
	126	2,54	2,25818E-001	-5,60262E-006	0,00000E+000	2,26004E-001	0,00000E+000	7	...........	-32768,00
	129	2,6	2,28821E-001	-5,59226E-006	0,00000E+000	2,29004E-001	0,00000E+000	7	...........	-32768,00
	132	2,66	2,31924E-001	-5,56185E-006	0,00000E+000	2,32004E-001	0,00000E+000	7	...........	-32768,00
	135	2,72	2,34827E-001	-5,54681E-006	0,00000E+000	2,35005E-001	0,00000E+000	7	...........	-32768,00
	138	2,78	2,37829E-001	-5,53913E-006	0,00000E+000	2,38005E-001	0,00000E+000	7	...........	-32768,00
	141	2,84	2,40832E-001	-5,51741E-006	0,00000E+000	2,41005E-001	0,00000E+000	7	...........	-32768,00
	144	2,9	2,43835E-001	-5,49803E-006	0,00000E+000	2,44005E-001	0,00000E+000	7	...........	-32768,00
	147	2,96	2,46838E-001	-5,47998E-006	0,00000E+000	2,47005E-001	0,00000E+000	7	...........	-32768,00
	150	3,02	2,49841E-001	-5,44824E-006	0,00000E+000	2,50006E-001	0,00000E+000	7	...........	-32768,00
	153	3,08	2,52844E-001	-5,43554E-006	0,00000E+000	2,52993E-001	0,00000E+000	7	...........	-32768,00
	156	3,14	2,55847E-001	-5,42384E-006	0,00000E+000	2,55994E-001	0,00000E+000	7	...........	-32768,00
	159	3,2	2,58850E-001	-5,42418E-006	0,00000E+000	2,58994E-001	0,00000E+000	7	...........	-32768,00
	162	3,26	2,61853E-001	-5,38776E-006	0,00000E+000	2,61994E-001	0,00000E+000	7	...........	-32768,00
	165	3,32	2,64855E-001	-5,38007E-006	0,00000E+000	2,64994E-001	0,00000E+000	7	...........	-32768,00
	168	3,38	2,67758E-001	-5,35735E-006	0,00000E+000	2,67995E-001	0,00000E+000	7	...........	-32768,00
	171	3,44	2,70861E-001	-5,33496E-006	0,00000E+000	2,70995E-001	0,00000E+000	7	...........	-32768,00
	174	3,5	2,73864E-001	-5,31925E-006	0,00000E+000	2,73995E-001	0,00000E+000	7	...........	-32768,00
	177	3,56	2,76767E-001	-5,28584E-006	0,00000E+000	2,76995E-001	0,00000E+000	7	...........	-32768,00
	180	3,62	2,79870E-001	-5,27247E-006	0,00000E+000	2,79996E-001	0,00000E+000	7	...........	-32768,00
	183	3,68	2,82773E-001	-5,24407E-006	0,00000E+000	2,82996E-001	0,00000E+000	7	...........	-32768,00
	186	3,74	2,85876E-001	-5,23070E-006	0,00000E+000	2,85996E-001	0,00000E+000	7	...........	-32768,00
	189	3,8	2,88879E-001	-5,19562E-006	0,00000E+000	2,88996E-001	0,00000E+000	7	...........	-32768,00
	192	3,86	2,91781E-001	-5,16855E-006	0,00000E+000	2,91997E-001	0,00000E+000	7	...........	-32768,00
	195	3,92	2,94784E-001	-5,14115E-006	0,00000E+000	2,94997E-001	0,00000E+000	7	...........	-32768,00
	198	3,98	2,97887E-001	-5,11308E-006	0,00000E+000	2,97997E-001	0,00000E+000	7	...........	-32768,00
	201	4,04	3,00890E-001	-5,08601E-006	0,00000E+000	3,00997E-001	0,00000E+000	7	...........	-32768,00
	204	4,1	3,03793E-001	-5,05360E-006	0,00000E+000	3,03998E-001	0,00000E+000	7	...........	-32768,00
	207	4,16	3,06796E-001	-5,01784E-006	0,00000E+000	3,06998E-001	0,00000E+000	7	...........	-32768,00
	210	4,22	3,09799E-001	-4,99011E-006	0,00000E+000	3,09998E-001	0,00000E+000	7	...........	-32768,00
	213	4,28	3,12801E-001	-4,94667E-006	0,00000E+000	3,12998E-001	0,00000E+000	7	...........	-32768,00
	216	4,34	3,15804E-001	-4,90958E-006	0,00000E+000	3,15998E-001	0,00000E+000	7	...........	-32768,00
	219	4,4	3,18807E-001	-4,88886E-006	0,00000E+000	3,18999E-001	0,00000E+000	7	...........	-32768,00
	222	4,46	3,21810E-001	-4,82704E-006	0,00000E+000	3,21999E-001	0,00000E+000	7	...........	-32768,00
	225	4,52	3,24713E-001	-4,78226E-006	0,00000E+000	3,24999E-001	0,00000E+000	7	...........	-32768,00
	228	4,58	3,27816E-001	-4,73682E-006	0,00000E+000	3,27999E-001	0,00000E+000	7	...........	-32768,00
	231	4,64	3,30819E-001	-4,68636E-006	0,00000E+000	3,31000E-001	0,00000E+000	7	...........	-32768,00
	234	4,7	3,33822E-001	-4,62120E-006	0,00000E+000	3,34000E-001	0,00000E+000	7	...........	-32768,00
	237	4,76	3,36825E-001	-4,56205E-006	0,00000E+000	3,37000E-001	0,00000E+000	7	...........	-32768,00
	240	4,82	3,39827E-001	-4,49957E-006	0,00000E+000	3,40000E-001	0,00000E+000	7	...........	-32768,00
	243	4,88	3,42830E-001	-4,41536E-006	0,00000E+000	3,43001E-001	0,00000E+000	7	...........	-32768,00
	246	4,94	3,45833E-001	-4,35488E-006	0,00000E+000	3,46001E-001	0,00000E+000	7	...........	-32768,00
	249	5	3,48836E-001	-4,27134E-006	0,00000E+000	3,49001E-001	0,00000E+000	7	...........	-32768,00
	252	5,06	3,51839E-001	-4,15906E-006	0,00000E+000	3,52001E-001	0,00000E+000	7	...........	-32768,00
	255	5,12	3,54842E-001	-4,08120E-006	0,00000E+000	3,55002E-001	0,00000E+000	7	...........	-32768,00
	258	5,18	3,57845E-001	-3,97193E-006	0,00000E+000	3,58002E-001	0,00000E+000	7	...........	-32768,00
	261	5,24	3,60848E-001	-3,87770E-006	0,00000E+000	3,61002E-001	0,00000E+000	7	...........	-32768,00
	264	5,3	3,63851E-001	-3,73769E-006	0,00000E+000	3,64002E-001	0,00000E+000	7	...........	-32768,00
	267	5,36	3,66853E-001	-3,60536E-006	0,00000E+000	3,67003E-001	0,00000E+000	7	...........	-32768,00
	270	5,42	3,69856E-001	-3,47604E-006	0,00000E+000	3,70003E-001	0,00000E+000	7	...........	-32768,00
	273	5,48	3,72859E-001	-3,31531E-006	0,00000E+000	3,73003E-001	0,00000E+000	7	...........	-32768,00
	276	5,54	3,75762E-001	-3,17230E-006	0,00000E+000	3,76003E-001	0,00000E+000	7	...........	-32768,00
	279	5,6	3,78765E-001	-2,99820E-006	0,00000E+000	3,79004E-001	0,00000E+000	7	...........	-32768,00
	282	5,66	3,81868E-001	-2,79871E-006	0,00000E+000	3,82004E-001	0,00000E+000	7	...........	-32768,00
	285	5,72	3,84871E-001	-2,61459E-006	0,00000E+000	3,85004E-001	0,00000E+000	7	...........	-32768,00
	288	5,78	3,87774E-001	-2,39772E-006	0,00000E+000	3,88004E-001	0,00000E+000	7	...........	-32768,00
	291	5,84	3,90776E-001	-2,19555E-006	0,00000E+000	3,91005E-001	0,00000E+000	7	...........	-32768,00
	294	5,9	3,93879E-001	-1,94226E-006	0,00000E+000	3,94005E-001	0,00000E+000	7	...........	-32768,00
	297	5,96	3,96882E-001	-1,68496E-006	0,00000E+000	3,97005E-001	0,00000E+000	7	...........	-32768,00
	300	6,02	3,99885E-001	-1,43668E-006	0,00000E+000	4,00005E-001	0,00000E+000	7	...........	-32768,00
	303	6,08	4,02888E-001	-1,16435E-006	0,00000E+000	4,03005E-001	0,00000E+000	7	...........	-32768,00
	306	6,14	4,05891E-001	-8,89335E-007	0,00000E+000	4,05993E-001	0,00000E+000	7	...........	-32768,00
	309	6,2	4,08794E-001	-6,00623E-007	0,00000E+000	4,08993E-001	0,00000E+000	7	...........	-32768,00
	312	6,26	4,11797E-001	-2,81838E-007	0,00000E+000	4,11994E-001	0,00000E+000	7	...........	-32768,00
	315	6,32	4,14799E-001	2,49183E-008	0,00000E+000	4,14994E-001	0,00000E+000	7	...........	-32768,00
	318	6,38	4,17802E-001	3,42033E-007	0,00000E+000	4,17994E-001	0,00000E+000	7	...........	-32768,00
	321	6,44	4,20805E-001	6,80868E-007	0,00000E+000	4,20994E-001	0,00000E+000	7	...........	-32768,00
	324	6,5	4,23808E-001	1,02104E-006	0,00000E+000	4,23995E-001	0,00000E+000	7	...........	-32768,00
	327	6,56	4,26811E-001	1,35453E-006	0,00000E+000	4,26995E-001	0,00000E+000	7	...........	-32768,00
	330	6,62	4,29814E-001	1,68902E-006	0,00000E+000	4,29995E-001	0,00000E+000	7	...........	-32768,00
	333	6,68	4,32817E-001	1,94432E-006	0,00000E+000	4,32995E-001	0,00000E+000	7	.....h.....	-32768,00
	336	6,74	4,35820E-001	2,42784E-006	0,00000E+000	4,35996E-001	0,00000E+000	7	...........	-32768,00
	339	6,8	4,38722E-001	2,84487E-006	0,00000E+000	4,38996E-001	0,00000E+000	7	...........	-32768,00
	342	6,86	4,41825E-001	3,24886E-006	0,00000E+000	4,41996E-001	0,00000E+000	7	...........	-32768,00
	345	6,92	4,44828E-001	3,70332E-006	0,00000E+000	4,44996E-001	0,00000E+000	7	...........	-32768,00
	348	6,98	4,47831E-001	4,19553E-006	0,00000E+000	4,47997E-001	0,00000E+000	7	...........	-32768,00
	351	7,04	4,50734E-001	4,25000E-006	0,00000E+000	4,50997E-001	0,00000E+000	7	...........	-32768,00
	354	7,1	4,53837E-001	5,31897E-006	0,00000E+000	4,53997E-001	0,00000E+000	7	...........	-32768,00
	357	7,16	4,56840E-001	5,93716E-006	0,00000E+000	4,56997E-001	0,00000E+000	7	...........	-32768,00
	360	7,22	4,59843E-001	6,61884E-006	0,00000E+000	4,59998E-001	0,00000E+000	7	...........	-32768,00
	363	7,28	4,62946E-001	7,35966E-006	0,00000E+000	4,62998E-001	0,00000E+000	7	...........	-32768,00
	366	7,34	4,65849E-001	8,15930E-006	0,00000E+000	4,65998E-001	0,00000E+000	7	...........	-32768,00
	369	7,4	4,68851E-001	9,02911E-006	0,00000E+000	4,68998E-001	0,00000E+000	7	...........	-32768,00
	372	7,46	4,71754E-001	9,97066E-006	0,00000E+000	4,71999E-001	0,00000E+000	8	...........	-32768,00
	375	7,52	4,74857E-001	1,09729E-005	0,00000E+000	4,74999E-001	0,00000E+000	8	...........	-32768,00
	378	7,58	4,77860E-001	1,20653E-005	0,00000E+000	4,77999E-001	0,00000E+000	8	...........	-32768,00
	381	7,64	4,80863E-001	1,32613E-005	0,00000E+000	4,80999E-001	0,00000E+000	8	...........	-32768,00
	384	7,7	4,83766E-001	1,45107E-005	0,00000E+000	4,83999E-001	0,00000E+000	8	...........	-32768,00
	387	7,76	4,86769E-001	1,58938E-005	0,00000E+000	4,87000E-001	0,00000E+000	8	...........	-32768,00
	390	7,82	4,89872E-001	1,73203E-005	0,00000E+000	4,90000E-001	0,00000E+000	8	...........	-32768,00
	393	7,88	4,92774E-001	1,88737E-005	0,00000E+000	4,93000E-001	0,00000E+000	8	...........	-32768,00
	396	7,94	4,95777E-001	2,05207E-005	0,00000E+000	4,96000E-001	0,00000E+000	8	...........	-32768,00
	399	8	4,98880E-001	2,22612E-005	0,00000E+000	4,99001E-001	0,00000E+000	8	...........	-32768,00
	402	8,06	5,01783E-001	2,40752E-005	0,00000E+000	5,02001E-001	0,00000E+000	8	...........	-32768,00
	405	8,12	5,04886E-001	2,59962E-005	0,00000E+000	5,05001E-001	0,00000E+000	8	...........	-32768,00
	408	8,18	5,07889E-001	2,80674E-005	0,00000E+000	5,08001E-001	0,00000E+000	8	...........	-32768,00
	411	8,24	5,10892E-001	3,02022E-005	0,00000E+000	5,11002E-001	0,00000E+000	8	...........	-32768,00
	414	8,3	5,13895E-001	3,24638E-005	0,00000E+000	5,14002E-001	0,00000E+000	8	...........	-32768,00
	417	8,36	5,16798E-001	3,48057E-005	0,00000E+000	5,17002E-001	0,00000E+000	8	...........	-32768,00
	420	8,42	5,19901E-001	3,72110E-005	0,00000E+000	5,20002E-001	0,00000E+000	8	...........	-32768,00
	423	8,48	5,22803E-001	3,95997E-005	0,00000E+000	5,23003E-001	0,00000E+000	8	...........	-32768,00
	426	8,54	5,25806E-001	4,23290E-005	0,00000E+000	5,26003E-001	0,00000E+000	8	...........	-32768,00
	429	8,6	5,28909E-001	4,53791E-005	0,00000E+000	5,29003E-001	0,00000E+000	8	...........	-32768,00
	432	8,66	5,32012E-001	4,81787E-005	0,00000E+000	5,32003E-001	0,00000E+000	8	...........	-32768,00
	435	8,72	5,34815E-001	5,09882E-005	0,00000E+000	5,35004E-001	0,00000E+000	8	...........	-32768,00
	438	8,78	5,37818E-001	5,38245E-005	0,00000E+000	5,38004E-001	0,00000E+000	8	...........	-32768,00
	441	8,84	5,40921E-001	5,69347E-005	0,00000E+000	5,41004E-001	0,00000E+000	8	...........	-32768,00
	444	8,9	5,43823E-001	6,00450E-005	0,00000E+000	5,44004E-001	0,00000E+000	8	...........	-32768,00
	447	8,96	5,46826E-001	6,32354E-005	0,00000E+000	5,47005E-001	0,00000E+000	8	...........	-32768,00
	450	9,02	5,49929E-001	6,65694E-005	0,00000E+000	5,50005E-001	0,00000E+000	8	...........	-32768,00
	453	9,08	5,52832E-001	6,98834E-005	0,00000E+000	5,53005E-001	0,00000E+000	8	...........	-32768,00
	456	9,14	5,55835E-001	7,33444E-005	0,00000E+000	5,56005E-001	0,00000E+000	8	...........	-32768,00
	459	9,2	5,58738E-001	7,66885E-005	0,00000E+000	5,58993E-001	0,00000E+000	8	...........	-32768,00
	462	9,26	5,61841E-001	8,00292E-005	0,00000E+000	5,61993E-001	0,00000E+000	8	...........	-32768,00
	465	9,32	5,64844E-001	8,33265E-005	0,00000E+000	5,64994E-001	0,00000E+000	8	...........	-32768,00
	468	9,38	5,67847E-001	8,66071E-005	0,00000E+000	5,67994E-001	0,00000E+000	8	...........	-32768,00
	471	9,44	5,70849E-001	8,98477E-005	0,00000E+000	5,70994E-001	0,00000E+000	8	...........	-32768,00
	474	9,5	5,73852E-001	9,28169E-005	0,00000E+000	5,73994E-001	0,00000E+000	9	...........	-32768,00
	477	9,56	5,76855E-001	9,57877E-005	0,00000E+000	5,76994E-001	0,00000E+000	9	...........	-32768,00
	480	9,62	5,79758E-001	9,87586E-005	0,00000E+000	5,79995E-001	0,00000E+000	9	...........	-32768,00
	483	9,68	5,82861E-001	1,01663E-004	0,00000E+000	5,82995E-001	0,00000E+000	9	...........	-32768,00
	486	9,74	5,85864E-001	1,04667E-004	0,00000E+000	5,85995E-001	0,00000E+000	9	...........	-32768,00
	489	9,8	5,88767E-001	1,07504E-004	0,00000E+000	5,88995E-001	0,00000E+000	9	...........	-32768,00
	492	9,86	5,91870E-001	1,10442E-004	0,00000E+000	5,91996E-001	0,00000E+000	9	...........	-32768,00
	495	9,92	5,94872E-001	1,13279E-004	0,00000E+000	5,94996E-001	0,00000E+000	9	...........	-32768,00
	498	9,98	5,97875E-001	1,16016E-004	0,00000E+000	5,97996E-001	0,00000E+000	9	...........	-32768,00
	501	10,04	6,00878E-001	1,18854E-004	0,00000E+000	6,00996E-001	0,00000E+000	9	...........	-32768,00
	504	10,1	6,03881E-001	1,21791E-004	0,00000E+000	6,03997E-001	0,00000E+000	9	...........	-32768,00
	507	10,16	6,06884E-001	1,24428E-004	0,00000E+000	6,06997E-001	0,00000E+000	9	...........	-32768,00
	510	10,22	6,09887E-001	1,27199E-004	0,00000E+000	6,09997E-001	0,00000E+000	9	...........	-32768,00
	513	10,28	6,12890E-001	1,29769E-004	0,00000E+000	6,12997E-001	0,00000E+000	9	...........	-32768,00
	516	10,34	6,15692E-001	1,31605E-004	0,00000E+000	6,15998E-001	0,00000E+000	9	...........	-32768,00
	519	10,4	6,18796E-001	1,33107E-004	0,00000E+000	6,18998E-001	0,00000E+000	9	...........	-32768,00
	522	10,46	6,21798E-001	1,33107E-004	0,00000E+000	6,21998E-001	0,00000E+000	9	...........	-32768,00
	525	10,52	6,24901E-001	1,30437E-004	0,00000E+000	6,24998E-001	0,00000E+000	9	...........	-32768,00
	528	10,58	6,27904E-001	1,23627E-004	0,00000E+000	6,27999E-001	0,00000E+000	9	...........	-32768,00
	531	10,64	6,31007E-001	1,10509E-004	0,00000E+000	6,30999E-001	0,00000E+000	9	...........	-32768,00
	534	10,7	6,33910E-001	8,91450E-005	0,00000E+000	6,33999E-001	0,00000E+000	9	...........	-32768,00
	537	10,76	6,36913E-001	5,94035E-005	0,00000E+000	6,36999E-001	0,00000E+000	8	...........	-32768,00
	540	10,82	6,39916E-001	3,75351E-005	0,00000E+000	6,40000E-001	0,00000E+000	8	...........	-32768,00
	543	10,88	6,42919E-001	2,88659E-005	0,00000E+000	6,43000E-001	0,00000E+000	8	...........	-32768,00
	546	10,94	6,45922E-001	2,38347E-005	0,00000E+000	6,46000E-001	0,00000E+000	8	...........	-32768,00
	549	11	6,48824E-001	2,04205E-005	0,00000E+000	6,49000E-001	0,00000E+000	8	...........	-32768,00
	552	11,06	6,51927E-001	1,79149E-005	0,00000E+000	6,52000E-001	0,00000E+000	8	...........	-32768,00
	555	11,12	6,54930E-001	1,59840E-005	0,00000E+000	6,55001E-001	0,00000E+000	8	...........	-32768,00
	558	11,18	6,57933E-001	1,44773E-005	0,00000E+000	6,58001E-001	0,00000E+000	8	...........	-32768,00
	561	11,24	6,60836E-001	1,32279E-005	0,00000E+000	6,61001E-001	0,00000E+000	8	...........	-32768,00
	564	11,3	6,63739E-001	1,22056E-005	0,00000E+000	6,64001E-001	0,00000E+000	8	...........	-32768,00
	567	11,36	6,66942E-001	1,13738E-005	0,00000E+000	6,67002E-001	0,00000E+000	8	...........	-32768,00
	570	11,42	6,69845E-001	1,06254E-005	0,00000E+000	6,70002E-001	0,00000E+000	8	...........	-32768,00
	573	11,48	6,72847E-001	1,00208E-005	0,00000E+000	6,73002E-001	0,00000E+000	8	...........	-32768,00
	576	11,54	6,75850E-001	9,45285E-006	0,00000E+000	6,76002E-001	0,00000E+000	8	...........	-32768,00
	579	11,6	6,78853E-001	8,99183E-006	0,00000E+000	6,79003E-001	0,00000E+000	8	...........	-32768,00
	582	11,66	6,81856E-001	8,52412E-006	0,00000E+000	6,82003E-001	0,00000E+000	8	...........	-32768,00
	585	11,72	6,84959E-001	8,13660E-006	0,00000E+000	6,85003E-001	0,00000E+000	8	...........	-32768,00
	588	11,78	6,87862E-001	7,79574E-006	0,00000E+000	6,88003E-001	0,00000E+000	7	...........	-32768,00
	591	11,84	6,90865E-001	7,52340E-006	0,00000E+000	6,91004E-001	0,00000E+000	7	...........	-32768,00
	594	11,9	6,93868E-001	7,24906E-006	0,00000E+000	6,94004E-001	0,00000E+000	7	...........	-32768,00
	597	11,96	6,96971E-001	6,95934E-006	0,00000E+000	6,97004E-001	0,00000E+000	7	...........	-32768,00
	600	12,02	6,99873E-001	6,74782E-006	0,00000E+000	7,00004E-001	0,00000E+000	7	...........	-32768,00
	603	12,08	7,02876E-001	6,56003E-006	0,00000E+000	7,03005E-001	0,00000E+000	7	...........	-32768,00
	606	12,14	7,05879E-001	6,34750E-006	0,00000E+000	7,06005E-001	0,00000E+000	7	...........	-32768,00
	609	12,2	7,08782E-001	6,15102E-006	0,00000E+000	7,09005E-001	0,00000E+000	7	...........	-32768,00
	612	12,26	7,11885E-001	5,96656E-006	0,00000E+000	7,11993E-001	0,00000E+000	7	...........	-32768,00
	615	12,32	7,14788E-001	5,81486E-006	0,00000E+000	7,14993E-001	0,00000E+000	7	...........	-32768,00
	618	12,38	7,17891E-001	5,66515E-006	0,00000E+000	7,17993E-001	0,00000E+000	7	...........	-32768,00
	621	12,44	7,20894E-001	5,56390E-006	0,00000E+000	7,20994E-001	0,00000E+000	7	...........	-32768,00
	624	12,5	7,23896E-001	5,43826E-006	0,00000E+000	7,23994E-001	0,00000E+000	7	...........	-32768,00
	627	12,56	7,26899E-001	5,31228E-006	0,00000E+000	7,26994E-001	0,00000E+000	7	...........	-32768,00
	630	12,62	7,29902E-001	5,20368E-006	0,00000E+000	7,29994E-001	0,00000E+000	7	...........	-32768,00
	633	12,68	7,32905E-001	5,12883E-006	0,00000E+000	7,32994E-001	0,00000E+000	7	...........	-32768,00
	636	12,74	7,35808E-001	5,00753E-006	0,00000E+000	7,35995E-001	0,00000E+000	7	...........	-32768,00
	639	12,8	7,38911E-001	4,94237E-006	0,00000E+000	7,38995E-001	0,00000E+000	7	...........	-32768,00
	642	12,86	7,41814E-001	4,84079E-006	0,00000E+000	7,41995E-001	0,00000E+000	7	...........	-32768,00
	645	12,92	7,44917E-001	4,73620E-006	0,00000E+000	7,44995E-001	0,00000E+000	7	...........	-32768,00
	648	12,98	7,47920E-001	4,68373E-006	0,00000E+000	7,47996E-001	0,00000E+000	7	...........	-32768,00
	651	13,04	7,50922E-001	4,62626E-006	0,00000E+000	7,50996E-001	0,00000E+000	7	...........	-32768,00
	654	13,1	7,53925E-001	4,52133E-006	0,00000E+000	7,53996E-001	0,00000E+000	7	...........	-32768,00
	657	13,16	7,56928E-001	4,45952E-006	0,00000E+000	7,56996E-001	0,00000E+000	7	...........	-32768,00
	660	13,22	7,59831E-001	4,38767E-006	0,00000E+000	7,59997E-001	0,00000E+000	7	...........	-32768,00
	663	13,28	7,62834E-001	4,41541E-006	0,00000E+000	7,62997E-001	0,00000E+000	7	...........	-32768,00
	666	13,34	7,65837E-001	4,30514E-006	0,00000E+000	7,65997E-001	0,00000E+000	7	...........	-32768,00
	669	13,4	7,69240E-001	5,04830E-006	0,00000E+000	7,68997E-001	0,00000E+000	7	...........	-32768,00
	672	13,46	7,71943E-001	4,22193E-006	0,00000E+000	7,71998E-001	0,00000E+000	7	...........	-32768,00
	675	13,52	7,74945E-001	4,17916E-006	0,00000E+000	7,74998E-001	0,00000E+000	7	.....h.....	-32768,00
	678	13,58	7,77948E-001	4,12937E-006	0,00000E+000	7,77998E-001	0,00000E+000	7	...........	-32768,00
	681	13,64	7,80951E-001	4,07156E-006	0,00000E+000	7,80998E-001	0,00000E+000	7	...........	-32768,00
	684	13,7	7,83954E-001	4,03113E-006	0,00000E+000	7,83999E-001	0,00000E+000	7	...........	-32768,00
	687	13,76	7,86857E-001	4,01342E-006	0,00000E+000	7,86999E-001	0,00000E+000	7	...........	-32768,00
	690	13,82	7,89960E-001	3,93656E-006	0,00000E+000	7,89999E-001	0,00000E+000	7	...........	-32768,00
	693	13,88	7,92863E-001	3,89379E-006	0,00000E+000	7,92999E-001	0,00000E+000	7	...........	-32768,00
	696	13,94	7,95866E-001	3,87040E-006	0,00000E+000	7,96000E-001	0,00000E+000	7	...........	-32768,00
	699	14	7,98969E-001	4,00439E-006	0,00000E+000	7,99000E-001	0,00000E+000	7	...........	-32768,00
	702	14,06	7,97968E-001	3,70699E-006	0,00000E+000	7,98000E-001	0,00000E+000	7	...........	-32768,00
	705	14,12	7,94965E-001	3,49581E-006	0,00000E+000	7,94999E-001	0,00000E+000	7	...........	-32768,00
	708	14,18	7,91962E-001	3,42296E-006	0,00000E+000	7,91999E-001	0,00000E+000	7	...........	-32768,00
	711	14,24	7,88959E-001	3,23684E-006	0,00000E+000	7,88999E-001	0,00000E+000	7	...........	-32768,00
	714	14,3	7,85956E-001	3,03835E-006	0,00000E+000	7,85999E-001	0,00000E+000	7	...........	-32768,00
	717	14,36	7,82853E-001	2,97486E-006	0,00000E+000	7,82998E-001	0,00000E+000	7	...........	-32768,00
	720	14,42	7,79950E-001	2,87728E-006	0,00000E+000	7,79998E-001	0,00000E+000	7	...........	-32768,00
	723	14,48	7,76847E-001	2,77670E-006	0,00000E+000	7,76998E-001	0,00000E+000	7	...........	-32768,00
	726	14,54	7,74045E-001	2,66810E-006	0,00000E+000	7,73998E-001	0,00000E+000	7	...........	-32768,00
	729	14,6	7,70842E-001	2,50069E-006	0,00000E+000	7,70998E-001	0,00000E+000	7	...........	-32768,00
	732	14,66	7,67839E-001	2,50269E-006	0,00000E+000	7,67997E-001	0,00000E+000	7	...........	-32768,00
	735	14,72	7,64936E-001	2,48632E-006	0,00000E+000	7,64997E-001	0,00000E+000	7	...........	-32768,00
	738	14,78	7,61933E-001	2,36469E-006	0,00000E+000	7,61997E-001	0,00000E+000	7	...........	-32768,00
	741	14,84	7,58930E-001	2,40144E-006	0,00000E+000	7,58997E-001	0,00000E+000	7	...........	-32768,00
	744	14,9	7,55927E-001	2,30120E-006	0,00000E+000	7,55996E-001	0,00000E+000	7	...........	-32768,00
	747	14,96	7,52924E-001	2,02585E-006	0,00000E+000	7,52996E-001	0,00000E+000	7	...........	-32768,00
	750	15,02	7,49921E-001	2,04690E-006	0,00000E+000	7,49996E-001	0,00000E+000	7	...........	-32768,00
	753	15,08	7,47019E-001	2,02685E-006	0,00000E+000	7,46996E-001	0,00000E+000	7	...........	-32768,00
	756	15,14	7,43916E-001	1,97706E-006	0,00000E+000	7,43995E-001	0,00000E+000	7	...........	-32768,00
	759	15,2	7,41013E-001	1,98609E-006	0,00000E+000	7,40995E-001	0,00000E+000	7	...........	-32768,00
	762	15,26	7,37910E-001	1,86579E-006	0,00000E+000	7,37995E-001	0,00000E+000	7	...........	-32768,00
	765	15,32	7,34907E-001	1,80831E-006	0,00000E+000	7,34995E-001	0,00000E+000	7	...........	-32768,00
	768	15,38	7,31904E-001	1,74984E-006	0,00000E+000	7,31994E-001	0,00000E+000	7	...........	-32768,00
	771	15,44	7,28901E-001	1,72110E-006	0,00000E+000	7,28994E-001	0,00000E+000	7	...........	-32768,00
	774	15,5	7,25898E-001	1,68033E-006	0,00000E+000	7,25994E-001	0,00000E+000	7	...........	-32768,00
	777	15,56	7,22795E-001	1,64190E-006	0,00000E+000	7,22994E-001	0,00000E+000	7	...........	-32768,00
	780	15,62	7,19893E-001	1,58744E-006	0,00000E+000	7,19993E-001	0,00000E+000	7	...........	-32768,00
	783	15,68	7,16890E-001	1,56104E-006	0,00000E+000	7,16993E-001	0,00000E+000	7	...........	-32768,00
	786	15,74	7,13887E-001	1,53197E-006	0,00000E+000	7,13993E-001	0,00000E+000	7	...........	-32768,00
	789	15,8	7,10884E-001	1,47349E-006	0,00000E+000	7,10993E-001	0,00000E+000	7	...........	-32768,00
	792	15,86	7,07781E-001	1,43606E-006	0,00000E+000	7,08005E-001	0,00000E+000	7	...........	-32768,00
	795	15,92	7,04878E-001	1,41468E-006	0,00000E+000	7,05005E-001	0,00000E+000	7	...........	-32768,00
	798	15,98	7,01875E-001	1,37926E-006	0,00000E+000	7,02004E-001	0,00000E+000	7	...........	-32768,00
	801	16,04	6,98872E-001	1,33515E-006	0,00000E+000	6,99004E-001	0,00000E+000	7	...........	-32768,00
	804	16,1	6,95870E-001	1,31677E-006	0,00000E+000	6,96004E-001	0,00000E+000	7	...........	-32768,00
	807	16,16	6,92967E-001	1,26631E-006	0,00000E+000	6,93004E-001	0,00000E+000	7	...........	-32768,00
	810	16,22	6,89864E-001	1,24894E-006	0,00000E+000	6,90004E-001	0,00000E+000	7	...........	-32768,00
	813	16,28	6,86861E-001	1,22621E-006	0,00000E+000	6,87003E-001	0,00000E+000	7	...........	-32768,00
	816	16,34	6,83858E-001	1,19814E-006	0,00000E+000	6,84003E-001	0,00000E+000	7	...........	-32768,00
	819	16,4	6,80855E-001	1,17275E-006	0,00000E+000	6,81003E-001	0,00000E+000	7	...........	-32768,00
	822	16,46	6,77952E-001	1,08085E-006	0,00000E+000	6,78003E-001	0,00000E+000	7	...........	-32768,00
	825	16,52	6,74849E-001	1,11260E-006	0,00000E+000	6,75002E-001	0,00000E+000	7	...........	-32768,00
	828	16,58	6,71947E-001	1,22788E-006	0,00000E+000	6,72002E-001	0,00000E+000	7	...........	-32768,00
	831	16,64	6,68844E-001	1,07050E-006	0,00000E+000	6,69002E-001	0,00000E+000	7	...........	-32768,00
	834	16,7	6,65741E-001	9,62229E-007	0,00000E+000	6,66002E-001	0,00000E+000	7	...........	-32768,00
	837	16,76	6,62838E-001	8,79023E-007	0,00000E+000	6,63001E-001	0,00000E+000	7	...........	-32768,00
	840	16,82	6,59935E-001	9,89963E-007	0,00000E+000	6,60001E-001	0,00000E+000	7	...........	-32768,00
	843	16,88	6,56832E-001	9,79271E-007	0,00000E+000	6,57001E-001	0,00000E+000	7	...........	-32768,00
	846	16,94	6,53929E-001	9,50199E-007	0,00000E+000	6,54001E-001	0,00000E+000	7	...........	-32768,00
	849	17	6,50826E-001	9,30149E-007	0,00000E+000	6,51000E-001	0,00000E+000	7	...........	-32768,00
	852	17,06	6,47823E-001	9,01412E-007	0,00000E+000	6,48000E-001	0,00000E+000	7	...........	-32768,00
	855	17,12	6,44820E-001	8,73343E-007	0,00000E+000	6,45000E-001	0,00000E+000	7	...........	-32768,00
	858	17,18	6,41818E-001	8,27229E-007	0,00000E+000	6,42000E-001	0,00000E+000	7	...........	-32768,00
	861	17,24	6,38915E-001	8,89048E-007	0,00000E+000	6,38999E-001	0,00000E+000	7	...........	-32768,00
	864	17,3	6,35812E-001	8,58306E-007	0,00000E+000	6,35999E-001	0,00000E+000	7	...........	-32768,00
	867	17,36	6,32909E-001	8,15868E-007	0,00000E+000	6,32999E-001	0,00000E+000	7	...........	-32768,00
	870	17,42	6,29906E-001	8,30905E-007	0,00000E+000	6,29999E-001	0,00000E+000	7	...........	-32768,00
	873	17,48	6,26903E-001	7,61734E-007	0,00000E+000	6,26998E-001	0,00000E+000	7	...........	-32768,00
	876	17,54	6,23800E-001	6,28740E-007	0,00000E+000	6,23998E-001	0,00000E+000	7	...........	-32768,00
	879	17,6	6,20797E-001	7,21636E-007	0,00000E+000	6,20998E-001	0,00000E+000	7	...........	-32768,00
	882	17,66	6,17895E-001	7,03925E-007	0,00000E+000	6,17998E-001	0,00000E+000	7	...........	-32768,00
	885	17,72	6,14792E-001	6,86215E-007	0,00000E+000	6,14998E-001	0,00000E+000	7	...........	-32768,00
	888	17,78	6,11889E-001	6,72180E-007	0,00000E+000	6,11997E-001	0,00000E+000	7	...........	-32768,00
	891	17,84	6,08886E-001	6,32416E-007	0,00000E+000	6,08997E-001	0,00000E+000	7	...........	-32768,00
	894	17,9	6,05783E-001	5,61574E-007	0,00000E+000	6,05997E-001	0,00000E+000	7	...........	-32768,00
	897	17,96	6,02780E-001	5,46203E-007	0,00000E+000	6,02997E-001	0,00000E+000	7	...........	-32768,00
	900	18,02	5,99977E-001	6,30077E-007	0,00000E+000	5,99996E-001	0,00000E+000	7	...........	-32768,00
	903	18,08	5,96774E-001	5,63579E-007	0,00000E+000	5,96996E-001	0,00000E+000	7	...........	-32768,00
	906	18,14	5,93872E-001	5,32503E-007	0,00000E+000	5,93996E-001	0,00000E+000	7	...........	-32768,00
	909	18,2	5,91069E-001	6,08022E-007	0,00000E+000	5,90996E-001	0,00000E+000	7	...........	-32768,00
	912	18,26	5,87866E-001	3,81798E-007	0,00000E+000	5,87995E-001	0,00000E+000	7	...........	-32768,00
	915	18,32	5,84763E-001	4,77367E-007	0,00000E+000	5,84995E-001	0,00000E+000	7	...........	-32768,00
	918	18,38	5,81860E-001	4,59991E-007	0,00000E+000	5,81995E-001	0,00000E+000	7	...........	-32768,00
	921	18,44	5,78857E-001	4,27912E-007	0,00000E+000	5,78995E-001	0,00000E+000	7	...........	-32768,00
	924	18,5	5,75854E-001	3,96835E-007	0,00000E+000	5,75994E-001	0,00000E+000	7	...........	-32768,00
	927	18,56	5,72751E-001	3,25994E-007	0,00000E+000	5,72994E-001	0,00000E+000	7	...........	-32768,00
	930	18,62	5,69848E-001	4,56649E-007	0,00000E+000	5,69994E-001	0,00000E+000	7	...........	-32768,00
	933	18,68	5,66846E-001	3,18308E-007	0,00000E+000	5,66994E-001	0,00000E+000	7	...........	-32768,00
	936	18,74	5,63843E-001	3,09954E-007	0,00000E+000	5,63993E-001	0,00000E+000	7	...........	-32768,00
	939	18,8	5,60840E-001	2,75870E-007	0,00000E+000	5,60993E-001	0,00000E+000	7	...........	-32768,00
	942	18,86	5,57937E-001	2,67850E-007	0,00000E+000	5,57993E-001	0,00000E+000	7	...........	-32768,00
	945	18,92	5,54834E-001	2,37442E-007	0,00000E+000	5,55005E-001	0,00000E+000	7	...........	-32768,00
	948	18,98	5,51831E-001	1,72950E-007	0,00000E+000	5,52005E-001	0,00000E+000	7	...........	-32768,00
	951	19,04	5,48828E-001	1,75957E-007	0,00000E+000	5,49005E-001	0,00000E+000	7	...........	-32768,00
	954	19,1	5,45825E-001	1,91328E-007	0,00000E+000	5,46004E-001	0,00000E+000	7	...........	-32768,00
	957	19,16	5,42822E-001	1,57579E-007	0,00000E+000	5,43004E-001	0,00000E+000	7	...........	-32768,00
	960	19,22	5,39720E-001	9,87670E-008	0,00000E+000	5,40004E-001	0,00000E+000	7	...........	-32768,00
	963	19,28	5,36717E-001	9,60937E-008	0,00000E+000	5,37004E-001	0,00000E+000	7	...........	-32768,00
	966	19,34	5,33814E-001	1,76626E-007	0,00000E+000	5,34003E-001	0,00000E+000	7	...........	-32768,00
	969	19,4	5,30811E-001	6,10073E-008	0,00000E+000	5,31003E-001	0,00000E+000	7	...........	-32768,00
	972	19,46	5,27708E-001	2,20400E-007	0,00000E+000	5,28003E-001	0,00000E+000	7	...........	-32768,00
	975	19,52	5,24605E-001	2,30091E-007	0,00000E+000	5,25003E-001	0,00000E+000	7	...........	-32768,00
	978	19,58	5,21802E-001	1,89658E-007	0,00000E+000	5,22003E-001	0,00000E+000	7	...........	-32768,00
	981	19,64	5,18699E-001	1,89992E-007	0,00000E+000	5,19002E-001	0,00000E+000	7	...........	-32768,00
	984	19,7	5,15997E-001	-1,07742E-007	0,00000E+000	5,16002E-001	0,00000E+000	7	...........	-32768,00
	987	19,76	5,13194E-001	-2,86220E-006	0,00000E+000	5,13002E-001	0,00000E+000	7	...........	-32768,00
	990	19,82	5,09691E-001	-1,13757E-007	0,00000E+000	5,10002E-001	0,00000E+000	7	...........	-32768,00
	993	19,88	5,06387E-001	4,94743E-007	0,00000E+000	5,07001E-001	0,00000E+000	7	...........	-32768,00
	996	19,94	5,03785E-001	2,29134E-008	0,00000E+000	5,04001E-001	0,00000E+000	7	...........	-32768,00
	999	20	5,00882E-001	-9,49986E-009	0,00000E+000	5,01001E-001	0,00000E+000	7	...........	-32768,00
	1002	20,06	4,97979E-001	1,53235E-007	0,00000E+000	4,98001E-001	0,00000E+000	7	...........	-32768,00
	1005	20,12	4,94376E-001	4,06237E-008	0,00000E+000	4,95000E-001	0,00000E+000	7	...........	-32768,00
	1008	20,18	4,91773E-001	-3,82419E-007	0,00000E+000	4,92000E-001	0,00000E+000	7	...........	-32768,00
	1011	20,24	4,88871E-001	3,28333E-007	0,00000E+000	4,89000E-001	0,00000E+000	7	...........	-32768,00
	1014	20,3	4,86468E-001	-6,26308E-008	0,00000E+000	4,86000E-001	0,00000E+000	7	...........	-32768,00
	1017	20,36	4,82865E-001	1,90692E-010	0,00000E+000	4,82999E-001	0,00000E+000	7	...........	-32768,00
	1020	20,42	4,79762E-001	-2,09326E-007	0,00000E+000	4,79999E-001	0,00000E+000	7	...........	-32768,00
	1023	20,48	4,76659E-001	-1,11706E-008	0,00000E+000	4,76999E-001	0,00000E+000	7	...........	-32768,00
	1026	20,54	4,73856E-001	-9,07000E-008	0,00000E+000	4,73999E-001	0,00000E+000	7	...........	-32768,00
	1029	20,6	4,71054E-001	-9,03658E-008	0,00000E+000	4,70998E-001	0,00000E+000	7	...........	-32768,00
	1032	20,66	4,67750E-001	-1,15048E-008	0,00000E+000	4,67998E-001	0,00000E+000	7	...........	-32768,00
	1035	20,72	4,64547E-001	-1,26789E-007	0,00000E+000	4,64998E-001	0,00000E+000	7	...........	-32768,00
	1038	20,78	4,61644E-001	-3,28620E-007	0,00000E+000	4,61998E-001	0,00000E+000	7	...........	-32768,00
	1041	20,84	4,58842E-001	-2,26034E-007	0,00000E+000	4,58997E-001	0,00000E+000	7	...........	-32768,00
	1044	20,9	4,55438E-001	-2,26034E-007	0,00000E+000	4,55997E-001	0,00000E+000	7	...........	-32768,00
	1047	20,96	4,53236E-001	-3,92444E-007	0,00000E+000	4,52997E-001	0,00000E+000	7	...........	-32768,00
	1050	21,02	4,49933E-001	-6,63065E-008	0,00000E+000	4,49997E-001	0,00000E+000	7	...........	-32768,00
	1053	21,08	4,46930E-001	-3,87431E-007	0,00000E+000	4,46997E-001	0,00000E+000	7	...........	-32768,00
	1056	21,14	4,44128E-001	-3,62370E-007	0,00000E+000	4,43996E-001	0,00000E+000	7	...........	-32768,00
	1059	21,2	4,41025E-001	-8,93011E-007	0,00000E+000	4,40996E-001	0,00000E+000	7	...........	-32768,00
	1062	21,26	4,37721E-001	-1,90150E-006	0,00000E+000	4,37996E-001	0,00000E+000	7	...........	-32768,00
	1065	21,32	4,35619E-001	-2,78835E-006	0,00000E+000	4,34996E-001	0,00000E+000	7	...........	-32768,00
	1068	21,38	4,31516E-001	-4,33683E-006	0,00000E+000	4,31995E-001	0,00000E+000	7	...........	-32768,00
	1071	21,44	4,28913E-001	-5,15451E-006	0,00000E+000	4,28995E-001	0,00000E+000	7	.....h.....	-32768,00
	1074	21,5	4,25510E-001	-7,31016E-006	0,00000E+000	4,25995E-001	0,00000E+000	7	.....h.....	-32768,00
	1077	21,56	4,22907E-001	-1,08822E-005	0,00000E+000	4,22995E-001	0,00000E+000	8	...........	-32768,00
	1080	21,62	4,19604E-001	-1,48543E-005	0,00000E+000	4,19994E-001	0,00000E+000	8	...........	-32768,00
	1083	21,68	4,16801E-001	-1,71895E-005	0,00000E+000	4,16994E-001	0,00000E+000	8	...........	-32768,00
	1086	21,74	4,13698E-001	-2,07073E-005	0,00000E+000	4,13994E-001	0,00000E+000	8	...........	-32768,00
	1089	21,8	4,10796E-001	-2,42418E-005	0,00000E+000	4,10994E-001	0,00000E+000	8	...........	-32768,00
	1092	21,86	4,07793E-001	-2,76828E-005	0,00000E+000	4,07993E-001	0,00000E+000	8	...........	-32768,00
	1095	21,92	4,04790E-001	-3,08865E-005	0,00000E+000	4,05006E-001	0,00000E+000	8	...........	-32768,00
	1098	21,98	4,01887E-001	-3,37896E-005	0,00000E+000	4,02005E-001	0,00000E+000	8	...........	-32768,00
	1101	22,04	3,98884E-001	-3,63420E-005	0,00000E+000	3,99005E-001	0,00000E+000	8	...........	-32768,00
	1104	22,1	3,95881E-001	-3,84967E-005	0,00000E+000	3,96005E-001	0,00000E+000	8	...........	-32768,00
	1107	22,16	3,92878E-001	-4,02740E-005	0,00000E+000	3,93005E-001	0,00000E+000	8	...........	-32768,00
	1110	22,22	3,89876E-001	-4,16704E-005	0,00000E+000	3,90004E-001	0,00000E+000	8	...........	-32768,00
	1113	22,28	3,86773E-001	-4,26526E-005	0,00000E+000	3,87004E-001	0,00000E+000	8	...........	-32768,00
	1116	22,34	3,83870E-001	-4,32840E-005	0,00000E+000	3,84004E-001	0,00000E+000	8	...........	-32768,00
	1119	22,4	3,80767E-001	-4,36147E-005	0,00000E+000	3,81004E-001	0,00000E+000	8	...........	-32768,00
	1122	22,46	3,77864E-001	-4,36749E-005	0,00000E+000	3,78003E-001	0,00000E+000	8	...........	-32768,00
	1125	22,52	3,74761E-001	-4,35346E-005	0,00000E+000	3,75003E-001	0,00000E+000	8	...........	-32768,00
	1128	22,58	3,71858E-001	-4,31871E-005	0,00000E+000	3,72003E-001	0,00000E+000	8	...........	-32768,00
	1131	22,64	3,68855E-001	-4,27061E-005	0,00000E+000	3,69003E-001	0,00000E+000	8	...........	-32768,00
	1134	22,7	3,65852E-001	-4,20980E-005	0,00000E+000	3,66003E-001	0,00000E+000	8	...........	-32768,00
	1137	22,76	3,62850E-001	-4,14266E-005	0,00000E+000	3,63002E-001	0,00000E+000	8	...........	-32768,00
	1140	22,82	3,59847E-001	-4,07083E-005	0,00000E+000	3,60002E-001	0,00000E+000	8	...........	-32768,00
	1143	22,88	3,56844E-001	-3,99333E-005	0,00000E+000	3,57002E-001	0,00000E+000	8	...........	-32768,00
	1146	22,94	3,53941E-001	-3,91315E-005	0,00000E+000	3,54002E-001	0,00000E+000	8	...........	-32768,00
	1149	23	3,50838E-001	-3,83364E-005	0,00000E+000	3,51001E-001	0,00000E+000	8	...........	-32768,00
	1152	23,06	3,47835E-001	-3,75279E-005	0,00000E+000	3,48001E-001	0,00000E+000	8	...........	-32768,00
	1155	23,12	3,44732E-001	-3,67529E-005	0,00000E+000	3,45001E-001	0,00000E+000	8	...........	-32768,00
	1158	23,18	3,41829E-001	-3,59544E-005	0,00000E+000	3,42001E-001	0,00000E+000	8	...........	-32768,00
	1161	23,24	3,38826E-001	-3,51994E-005	0,00000E+000	3,39000E-001	0,00000E+000	8	...........	-32768,00
	1164	23,3	3,35824E-001	-3,44444E-005	0,00000E+000	3,36000E-001	0,00000E+000	8	...........	-32768,00
	1167	23,36	3,32821E-001	-3,37295E-005	0,00000E+000	3,33000E-001	0,00000E+000	8	...........	-32768,00
	1170	23,42	3,29818E-001	-3,30246E-005	0,00000E+000	3,30000E-001	0,00000E+000	8	...........	-32768,00
	1173	23,48	3,26715E-001	-3,23231E-005	0,00000E+000	3,26999E-001	0,00000E+000	8	...........	-32768,00
	1176	23,54	3,23812E-001	-3,16649E-005	0,00000E+000	3,23999E-001	0,00000E+000	8	...........	-32768,00
	1179	23,6	3,20909E-001	-3,10202E-005	0,00000E+000	3,20999E-001	0,00000E+000	8	...........	-32768,00
	1182	23,66	3,17806E-001	-3,03888E-005	0,00000E+000	3,17999E-001	0,00000E+000	8	...........	-32768,00
	1185	23,72	3,14803E-001	-2,97808E-005	0,00000E+000	3,14998E-001	0,00000E+000	8	...........	-32768,00
	1188	23,78	3,11801E-001	-2,91861E-005	0,00000E+000	3,11998E-001	0,00000E+000	8	...........	-32768,00
	1191	23,84	3,08798E-001	-2,86148E-005	0,00000E+000	3,08998E-001	0,00000E+000	8	...........	-32768,00
	1194	23,9	3,05795E-001	-2,80636E-005	0,00000E+000	3,05998E-001	0,00000E+000	8	...........	-32768,00
	1197	23,96	3,02792E-001	-2,75124E-005	0,00000E+000	3,02997E-001	0,00000E+000	8	...........	-32768,00
	1200	24,02	2,99789E-001	-2,69979E-005	0,00000E+000	2,99997E-001	0,00000E+000	8	...........	-32768,00
	1203	24,08	2,96786E-001	-2,64667E-005	0,00000E+000	2,96997E-001	0,00000E+000	8	...........	-32768,00
	1206	24,14	2,93783E-001	-2,59957E-005	0,00000E+000	2,93997E-001	0,00000E+000	8	...........	-32768,00
	1209	24,2	2,90780E-001	-2,55080E-005	0,00000E+000	2,90996E-001	0,00000E+000	8	...........	-32768,00
	1212	24,26	2,87777E-001	-2,50536E-005	0,00000E+000	2,87996E-001	0,00000E+000	8	...........	-32768,00
	1215	24,32	2,84775E-001	-2,45993E-005	0,00000E+000	2,84996E-001	0,00000E+000	8	...........	-32768,00
	1218	24,38	2,81772E-001	-2,41650E-005	0,00000E+000	2,81996E-001	0,00000E+000	8	...........	-32768,00
	1221	24,44	2,78869E-001	-2,37608E-005	0,00000E+000	2,78996E-001	0,00000E+000	8	...........	-32768,00
	1224	24,5	2,75866E-001	-2,33331E-005	0,00000E+000	2,75995E-001	0,00000E+000	8	...........	-32768,00
	1227	24,56	2,72863E-001	-2,29723E-005	0,00000E+000	2,72995E-001	0,00000E+000	8	...........	-32768,00
	1230	24,62	2,69760E-001	-2,25915E-005	0,00000E+000	2,69995E-001	0,00000E+000	8	...........	-32768,00
	1233	24,68	2,66857E-001	-2,22106E-005	0,00000E+000	2,66995E-001	0,00000E+000	8	...........	-32768,00
	1236	24,74	2,63854E-001	-2,18766E-005	0,00000E+000	2,63994E-001	0,00000E+000	8	...........	-32768,00
	1239	24,8	2,60852E-001	-2,15358E-005	0,00000E+000	2,60994E-001	0,00000E+000	8	...........	-32768,00
	1242	24,86	2,57849E-001	-2,12051E-005	0,00000E+000	2,57994E-001	0,00000E+000	8	...........	-32768,00
	1245	24,92	2,54846E-001	-2,09078E-005	0,00000E+000	2,54994E-001	0,00000E+000	8	...........	-32768,00
	1248	24,98	2,51843E-001	-2,05937E-005	0,00000E+000	2,52006E-001	0,00000E+000	8	...........	-32768,00
	1251	25,04	2,48740E-001	-2,03098E-005	0,00000E+000	2,49006E-001	0,00000E+000	8	...........	-32768,00
	1254	25,1	2,45837E-001	-2,00191E-005	0,00000E+000	2,46005E-001	0,00000E+000	8	...........	-32768,00
	1257	25,16	2,42734E-001	-1,97652E-005	0,00000E+000	2,43005E-001	0,00000E+000	8	...........	-32768,00
	1260	25,22	2,39731E-001	-1,94913E-005	0,00000E+000	2,40005E-001	0,00000E+000	8	...........	-32768,00
	1263	25,28	2,36828E-001	-1,92207E-005	0,00000E+000	2,37005E-001	0,00000E+000	8	...........	-32768,00
	1266	25,34	2,33826E-001	-1,90002E-005	0,00000E+000	2,34004E-001	0,00000E+000	8	...........	-32768,00
	1269	25,4	2,30823E-001	-1,87496E-005	0,00000E+000	2,31004E-001	0,00000E+000	8	...........	-32768,00
	1272	25,46	2,27820E-001	-1,85292E-005	0,00000E+000	2,28004E-001	0,00000E+000	8	...........	-32768,00
	1275	25,52	2,24717E-001	-1,83087E-005	0,00000E+000	2,25004E-001	0,00000E+000	8	...........	-32768,00
	1278	25,58	2,21714E-001	-1,80748E-005	0,00000E+000	2,22003E-001	0,00000E+000	8	...........	-32768,00
	1281	25,64	2,18811E-001	-1,78811E-005	0,00000E+000	2,19003E-001	0,00000E+000	8	...........	-32768,00
	1284	25,7	2,15808E-001	-1,76906E-005	0,00000E+000	2,16003E-001	0,00000E+000	8	...........	-32768,00
	1287	25,76	2,12805E-001	-1,74802E-005	0,00000E+000	2,13003E-001	0,00000E+000	8	...........	-32768,00
	1290	25,82	2,09803E-001	-1,72998E-005	0,00000E+000	2,10003E-001	0,00000E+000	8	...........	-32768,00
	1293	25,88	2,06800E-001	-1,70960E-005	0,00000E+000	2,07002E-001	0,00000E+000	8	...........	-32768,00
	1296	25,94	2,03797E-001	-1,69223E-005	0,00000E+000	2,04002E-001	0,00000E+000	8	...........	-32768,00
	1299	26	2,00794E-001	-1,67452E-005	0,00000E+000	2,01002E-001	0,00000E+000	8	...........	-32768,00
	1302	26,06	1,97791E-001	-1,65815E-005	0,00000E+000	1,98002E-001	0,00000E+000	8	...........	-32768,00
	1305	26,12	1,94788E-001	-1,64044E-005	0,00000E+000	1,95001E-001	0,00000E+000	8	...........	-32768,00
	1308	26,18	1,91785E-001	-1,62408E-005	0,00000E+000	1,92001E-001	0,00000E+000	8	...........	-32768,00
	1311	26,24	1,88882E-001	-1,60904E-005	0,00000E+000	1,89001E-001	0,00000E+000	8	...........	-32768,00
	1314	26,3	1,85779E-001	-1,59401E-005	0,00000E+000	1,86001E-001	0,00000E+000	8	...........	-32768,00
	1317	26,36	1,82777E-001	-1,57831E-005	0,00000E+000	1,83000E-001	0,00000E+000	8	...........	-32768,00
	1320	26,42	1,79874E-001	-1,56561E-005	0,00000E+000	1,80000E-001	0,00000E+000	8	...........	-32768,00
	1323	26,48	1,76871E-001	-1,55091E-005	0,00000E+000	1,77000E-001	0,00000E+000	8	...........	-32768,00
	1326	26,54	1,73768E-001	-1,53688E-005	0,00000E+000	1,74000E-001	0,00000E+000	8	...........	-32768,00
	1329	26,6	1,70765E-001	-1,52285E-005	0,00000E+000	1,70999E-001	0,00000E+000	8	...........	-32768,00
	1332	26,66	1,67862E-001	-1,51149E-005	0,00000E+000	1,67999E-001	0,00000E+000	8	...........	-32768,00
	1335	26,72	1,64759E-001	-1,49913E-005	0,00000E+000	1,64999E-001	0,00000E+000	8	...........	-32768,00
	1338	26,78	1,61756E-001	-1,48610E-005	0,00000E+000	1,61999E-001	0,00000E+000	8	...........	-32768,00
	1341	26,84	1,58753E-001	-1,47441E-005	0,00000E+000	1,58998E-001	0,00000E+000	8	...........	-32768,00
	1344	26,9	1,55751E-001	-1,46138E-005	0,00000E+000	1,55998E-001	0,00000E+000	8	...........	-32768,00
	1347	26,96	1,52748E-001	-1,45002E-005	0,00000E+000	1,52998E-001	0,00000E+000	8	...........	-32768,00
	1350	27,02	1,49745E-001	-1,43967E-005	0,00000E+000	1,49998E-001	0,00000E+000	8	...........	-32768,00
	1353	27,08	1,46842E-001	-1,42831E-005	0,00000E+000	1,46997E-001	0,00000E+000	8	...........	-32768,00
	1356	27,14	1,43939E-001	-1,41895E-005	0,00000E+000	1,43997E-001	0,00000E+000	8	...........	-32768,00
	1359	27,2	1,40836E-001	-1,40793E-005	0,00000E+000	1,40997E-001	0,00000E+000	8	...........	-32768,00
	1362	27,26	1,37733E-001	-1,39924E-005	0,00000E+000	1,37997E-001	0,00000E+000	8	...........	-32768,00
	1365	27,32	1,34730E-001	-1,39056E-005	0,00000E+000	1,34997E-001	0,00000E+000	8	...........	-32768,00
	1368	27,38	1,31828E-001	-1,38254E-005	0,00000E+000	1,31996E-001	0,00000E+000	8	...........	-32768,00
	1371	27,44	1,28825E-001	-1,37352E-005	0,00000E+000	1,28996E-001	0,00000E+000	8	...........	-32768,00
	1374	27,5	1,25822E-001	-1,36550E-005	0,00000E+000	1,25996E-001	0,00000E+000	8	...........	-32768,00
	1377	27,56	1,22819E-001	-1,35648E-005	0,00000E+000	1,22996E-001	0,00000E+000	8	...........	-32768,00
	1380	27,62	1,19816E-001	-1,35114E-005	0,00000E+000	1,19995E-001	0,00000E+000	8	...........	-32768,00
	1383	27,68	1,16813E-001	-1,34212E-005	0,00000E+000	1,16995E-001	0,00000E+000	8	...........	-32768,00
	1386	27,74	1,13810E-001	-1,33610E-005	0,00000E+000	1,13995E-001	0,00000E+000	8	...........	-32768,00
	1389	27,8	1,10707E-001	-1,32942E-005	0,00000E+000	1,10995E-001	0,00000E+000	8	...........	-32768,00
	1392	27,86	1,07805E-001	-1,32174E-005	0,00000E+000	1,07994E-001	0,00000E+000	8	...........	-32768,00
	1395	27,92	1,04802E-001	-1,31773E-005	0,00000E+000	1,04994E-001	0,00000E+000	8	...........	-32768,00
	1398	27,98	1,01799E-001	-1,31172E-005	0,00000E+000	1,01994E-001	0,00000E+000	8	...........	-32768,00
	1400	28,02	9,97968E-002	-1,30904E-005	0,00000E+000	1,00006E-001	0,00000E+000	8	...........	-32768,00