File: HOPG_cv/1mM/AgNO3_HOPG_1mM_3_70mv_cv.DTA
EXPLAIN
TAG	CV
TITLE	LABEL	Cyclic Voltammetry	Test &Identifier
DATE	LABEL	7/4/2022	Date
TIME	LABEL	19:28:34	Time
NOTES	NOTES	2	&Notes...
	07/04/22 , 1mM  AgNO3

PSTAT	PSTAT	IFC1000-09004	Potentiostat
VINIT	POTEN	1,00000E-001	F	Initial &E (V)
VLIMIT1	POTEN	1,00000E-001	F	Scan Limit &1 (V)
VLIMIT2	POTEN	8,00000E-001	F	Scan Limit &2 (V)
VFINAL	POTEN	1,00000E-001	F	Final &E (V)
SCANRATE	QUANT	7,00115E+001	&Scan Rate (mV/s)
STEPSIZE	QUANT	1,00000E+000	St&ep Size (mV)
CYCLES	IQUANT	1	C&ycles (#)
IMODE	SELECTOR	0	I/E Range &Mode
IRANGE	QUANT	1,00000E-005	&Max Current (mA)
AREA	QUANT	1,00000E+000	Electrode &Area (cm^2)
ELECTRODETYPE	SELECTOR	0	Electrode Type
STRIPPING	TOGGLE	F	Used for Stripping
POLARITY	TOGGLE	F	Signal Polarity
CONDIT	TWOPARAM	F	1,50000E+001	0,00000E+000	Conditionin&g	Time(s)	E(V)
DELAY	TWOPARAM	F	3,00000E+001	0,00000E+000	Init. De&lay	Time(s)	Stab.(mV/s)
EQDELAY	QUANT	1,00000E+001	Equil. &Time (s)
IRCOMP	SELECTOR	0	IRCom&p
PFCOR	QUANT	5,00000E+001	PF Corr. (ohm)
SAMPLINGMODE	SELECTOR	0	Sampling &Mode
EOC	QUANT	0	Open Circuit (V)
PSTATMODEL	IQUANT	48	Pstat Model
PSTATSECTION	LABEL	IFC1000-09004	Pstat Section
PSTATSERIALNO	LABEL	09004	Pstat Serial Number
CTRLMODE	IQUANT	1	Control Mode
ELECTROMETER	IQUANT	0	RE=0 or CS=1
IESTAB	IQUANT	2	I/E Stability
CASPEED	IQUANT	4	Control Amp Speed
CONVENTION	IQUANT	1	Current Convention
ICHRANGE	IQUANT	2	Ich Range
ICHRANGEMODE	TOGGLE	F	Ich Auto Range
ICHOFFSETENABLE	TOGGLE	F	Ich Offset Enable
ICHOFFSET	QUANT	0	Ich Offset (V)
ICHFILTER	IQUANT	3	Ich Filter
VCHRANGE	IQUANT	2	Vch Range
VCHRANGEMODE	TOGGLE	F	Vch Auto Range
VCHOFFSETENABLE	TOGGLE	F	Vch Offset Enable
VCHOFFSET	QUANT	0	Vch Offset (V)
VCHFILTER	IQUANT	3	Vch Filter
IERANGELOWERLIMIT	IQUANT	4	I/E Range Lower Limit
IERANGEMODE	TOGGLE	T	I/E AutoRange
IERANGE	IQUANT	5	I/E Range
ACHSELECT	IQUANT	0	Ach Select
ACHRANGE	IQUANT	2	Ach Range
ACHOFFSETENABLE	TOGGLE	F	Ach Offset Enable
ACHOFFSET	QUANT	0	Ach Offset (V)
ACHFILTER	IQUANT	1	Ach Filter
CABLEID	IQUANT	14	Cable ID
DCCALDATE	LABEL	3/18/2022	DC Calibration Date
ACCALDATE	LABEL	3/10/2016	AC Calibration Date
FRAMEWORKVERSION	QUANT	7,05	Framework Version
INSTRUMENTVERSION	LABEL	4.21	Instrument Version
CURVE1	TABLE
	Pt	T	Vf	Im	Vu	Sig	Ach	IERange	Over	Temp
	#	s	V vs. Ref.	A	V	V	V	#	bits	deg C
	0	0,014283	9,97968E-002	-6,95027E-006	0,00000E+000	1,00006E-001	0,00000E+000	7	...........	-32768,00
	3	0,057133	1,02800E-001	-6,68896E-006	0,00000E+000	1,02994E-001	0,00000E+000	7	...........	-32768,00
	6	0,099983	1,05703E-001	-6,55330E-006	0,00000E+000	1,05994E-001	0,00000E+000	7	...........	-32768,00
	9	0,142833	1,08705E-001	-6,43701E-006	0,00000E+000	1,08994E-001	0,00000E+000	7	...........	-32768,00
	12	0,185683	1,11808E-001	-6,32674E-006	0,00000E+000	1,11995E-001	0,00000E+000	7	...........	-32768,00
	15	0,228533	1,14811E-001	-6,24153E-006	0,00000E+000	1,14995E-001	0,00000E+000	7	...........	-32768,00
	18	0,271383	1,17814E-001	-6,14897E-006	0,00000E+000	1,17995E-001	0,00000E+000	7	...........	-32768,00
	21	0,314233	1,20817E-001	-6,09216E-006	0,00000E+000	1,20995E-001	0,00000E+000	7	...........	-32768,00
	24	0,357083	1,23820E-001	-6,02232E-006	0,00000E+000	1,23996E-001	0,00000E+000	7	...........	-32768,00
	27	0,399933	1,26823E-001	-5,93644E-006	0,00000E+000	1,26996E-001	0,00000E+000	7	...........	-32768,00
	30	0,442783	1,29826E-001	-5,87429E-006	0,00000E+000	1,29996E-001	0,00000E+000	7	...........	-32768,00
	33	0,485633	1,32829E-001	-5,80111E-006	0,00000E+000	1,32996E-001	0,00000E+000	7	...........	-32768,00
	36	0,528483	1,35731E-001	-5,76836E-006	0,00000E+000	1,35997E-001	0,00000E+000	7	...........	-32768,00
	39	0,571333	1,38834E-001	-5,70688E-006	0,00000E+000	1,38997E-001	0,00000E+000	7	...........	-32768,00
	42	0,614183	1,41837E-001	-5,65375E-006	0,00000E+000	1,41997E-001	0,00000E+000	7	...........	-32768,00
	45	0,657033	1,44840E-001	-5,59894E-006	0,00000E+000	1,44997E-001	0,00000E+000	7	...........	-32768,00
	48	0,699883	1,47743E-001	-5,54280E-006	0,00000E+000	1,47998E-001	0,00000E+000	7	...........	-32768,00
	51	0,742733	1,50746E-001	-5,51006E-006	0,00000E+000	1,50998E-001	0,00000E+000	7	...........	-32768,00
	54	0,785583	1,53749E-001	-5,45726E-006	0,00000E+000	1,53998E-001	0,00000E+000	7	...........	-32768,00
	57	0,828433	1,56752E-001	-5,42785E-006	0,00000E+000	1,56998E-001	0,00000E+000	7	...........	-32768,00
	60	0,871283	1,59754E-001	-5,37439E-006	0,00000E+000	1,59999E-001	0,00000E+000	7	...........	-32768,00
	63	0,914133	1,62857E-001	-5,34699E-006	0,00000E+000	1,62999E-001	0,00000E+000	7	...........	-32768,00
	66	0,95698	1,65860E-001	-5,30622E-006	0,00000E+000	1,65999E-001	0,00000E+000	7	...........	-32768,00
	69	0,99983	1,68663E-001	-5,25142E-006	0,00000E+000	1,68999E-001	0,00000E+000	7	...........	-32768,00
	72	1,04268	1,71766E-001	-5,24139E-006	0,00000E+000	1,71999E-001	0,00000E+000	7	...........	-32768,00
	75	1,08553	1,74869E-001	-5,21867E-006	0,00000E+000	1,75000E-001	0,00000E+000	7	...........	-32768,00
	78	1,12838	1,77772E-001	-5,18893E-006	0,00000E+000	1,78000E-001	0,00000E+000	7	...........	-32768,00
	81	1,17123	1,80875E-001	-5,14516E-006	0,00000E+000	1,81000E-001	0,00000E+000	7	...........	-32768,00
	84	1,21408	1,83778E-001	-5,12277E-006	0,00000E+000	1,84000E-001	0,00000E+000	7	...........	-32768,00
	87	1,25693	1,86881E-001	-5,09570E-006	0,00000E+000	1,87001E-001	0,00000E+000	7	...........	-32768,00
	90	1,29978	1,89783E-001	-5,05961E-006	0,00000E+000	1,90001E-001	0,00000E+000	7	...........	-32768,00
	93	1,34263	1,92886E-001	-5,02987E-006	0,00000E+000	1,93001E-001	0,00000E+000	7	...........	-32768,00
	96	1,38548	1,95789E-001	-5,00147E-006	0,00000E+000	1,96001E-001	0,00000E+000	7	...........	-32768,00
	99	1,42833	1,98892E-001	-4,99044E-006	0,00000E+000	1,99002E-001	0,00000E+000	7	...........	-32768,00
	102	1,47118	2,01795E-001	-4,95836E-006	0,00000E+000	2,02002E-001	0,00000E+000	7	...........	-32768,00
	105	1,51403	2,04798E-001	-4,93999E-006	0,00000E+000	2,05002E-001	0,00000E+000	7	...........	-32768,00
	108	1,55688	2,07801E-001	-4,91091E-006	0,00000E+000	2,08002E-001	0,00000E+000	7	...........	-32768,00
	111	1,59973	2,10803E-001	-4,88117E-006	0,00000E+000	2,11003E-001	0,00000E+000	7	...........	-32768,00
	114	1,64258	2,13906E-001	-4,87282E-006	0,00000E+000	2,14003E-001	0,00000E+000	7	...........	-32768,00
	117	1,68543	2,16809E-001	-4,84074E-006	0,00000E+000	2,17003E-001	0,00000E+000	7	...........	-32768,00
	120	1,72828	2,19712E-001	-4,83306E-006	0,00000E+000	2,20003E-001	0,00000E+000	7	...........	-32768,00
	123	1,77113	2,22815E-001	-4,80198E-006	0,00000E+000	2,23004E-001	0,00000E+000	7	...........	-32768,00
	126	1,81398	2,25818E-001	-4,77992E-006	0,00000E+000	2,26004E-001	0,00000E+000	7	...........	-32768,00
	129	1,85683	2,28821E-001	-4,75185E-006	0,00000E+000	2,29004E-001	0,00000E+000	7	...........	-32768,00
	132	1,89968	2,31824E-001	-4,74049E-006	0,00000E+000	2,32004E-001	0,00000E+000	7	...........	-32768,00
	135	1,94253	2,34827E-001	-4,71176E-006	0,00000E+000	2,35005E-001	0,00000E+000	7	...........	-32768,00
	138	1,98538	2,37829E-001	-4,68335E-006	0,00000E+000	2,38005E-001	0,00000E+000	7	...........	-32768,00
	141	2,02823	2,40932E-001	-4,67433E-006	0,00000E+000	2,41005E-001	0,00000E+000	7	...........	-32768,00
	144	2,07108	2,43835E-001	-4,65161E-006	0,00000E+000	2,44005E-001	0,00000E+000	7	...........	-32768,00
	147	2,11393	2,46838E-001	-4,63924E-006	0,00000E+000	2,47005E-001	0,00000E+000	7	...........	-32768,00
	150	2,15678	2,49741E-001	-4,62521E-006	0,00000E+000	2,50006E-001	0,00000E+000	7	...........	-32768,00
	153	2,19963	2,52844E-001	-4,57876E-006	0,00000E+000	2,52993E-001	0,00000E+000	7	...........	-32768,00
	156	2,24248	2,55747E-001	-4,55570E-006	0,00000E+000	2,55994E-001	0,00000E+000	7	...........	-32768,00
	159	2,28533	2,58950E-001	-4,54067E-006	0,00000E+000	2,58994E-001	0,00000E+000	7	...........	-32768,00
	162	2,32818	2,61853E-001	-4,47785E-006	0,00000E+000	2,61994E-001	0,00000E+000	7	...........	-32768,00
	165	2,37103	2,64755E-001	-4,49422E-006	0,00000E+000	2,64994E-001	0,00000E+000	7	...........	-32768,00
	168	2,41388	2,67858E-001	-4,49088E-006	0,00000E+000	2,67995E-001	0,00000E+000	7	...........	-32768,00
	171	2,45673	2,70761E-001	-4,43207E-006	0,00000E+000	2,70995E-001	0,00000E+000	7	...........	-32768,00
	174	2,49958	2,73864E-001	-4,43875E-006	0,00000E+000	2,73995E-001	0,00000E+000	7	...........	-32768,00
	177	2,54243	2,76767E-001	-4,39097E-006	0,00000E+000	2,76995E-001	0,00000E+000	7	...........	-32768,00
	180	2,58528	2,79770E-001	-4,34051E-006	0,00000E+000	2,79996E-001	0,00000E+000	7	...........	-32768,00
	183	2,62813	2,82873E-001	-4,32681E-006	0,00000E+000	2,82996E-001	0,00000E+000	7	...........	-32768,00
	186	2,67098	2,85776E-001	-4,29907E-006	0,00000E+000	2,85996E-001	0,00000E+000	7	...........	-32768,00
	189	2,71383	2,88879E-001	-4,26566E-006	0,00000E+000	2,88996E-001	0,00000E+000	7	...........	-32768,00
	192	2,75668	2,91781E-001	-4,23458E-006	0,00000E+000	2,91997E-001	0,00000E+000	7	...........	-32768,00
	195	2,79953	2,94784E-001	-4,20718E-006	0,00000E+000	2,94997E-001	0,00000E+000	7	...........	-32768,00
	198	2,84238	2,97887E-001	-4,15238E-006	0,00000E+000	2,97997E-001	0,00000E+000	7	...........	-32768,00
	201	2,88523	3,00790E-001	-4,09056E-006	0,00000E+000	3,00997E-001	0,00000E+000	7	...........	-32768,00
	204	2,92808	3,03893E-001	-4,05480E-006	0,00000E+000	3,03998E-001	0,00000E+000	7	...........	-32768,00
	207	2,97093	3,06896E-001	-4,01103E-006	0,00000E+000	3,06998E-001	0,00000E+000	7	...........	-32768,00
	210	3,01378	3,09799E-001	-3,97060E-006	0,00000E+000	3,09998E-001	0,00000E+000	7	...........	-32768,00
	213	3,05663	3,12801E-001	-3,90610E-006	0,00000E+000	3,12998E-001	0,00000E+000	7	...........	-32768,00
	216	3,09948	3,15804E-001	-3,86567E-006	0,00000E+000	3,15998E-001	0,00000E+000	7	...........	-32768,00
	219	3,14233	3,18707E-001	-3,78815E-006	0,00000E+000	3,18999E-001	0,00000E+000	7	...........	-32768,00
	222	3,18518	3,21710E-001	-3,74705E-006	0,00000E+000	3,21999E-001	0,00000E+000	7	...........	-32768,00
	225	3,22803	3,24813E-001	-3,71229E-006	0,00000E+000	3,24999E-001	0,00000E+000	7	...........	-32768,00
	228	3,27088	3,27716E-001	-3,60169E-006	0,00000E+000	3,27999E-001	0,00000E+000	7	...........	-32768,00
	231	3,31373	3,30719E-001	-3,54288E-006	0,00000E+000	3,31000E-001	0,00000E+000	7	...........	-32768,00
	234	3,35658	3,33922E-001	-3,46101E-006	0,00000E+000	3,34000E-001	0,00000E+000	7	...........	-32768,00
	237	3,39943	3,36825E-001	-3,36845E-006	0,00000E+000	3,37000E-001	0,00000E+000	7	...........	-32768,00
	240	3,44228	3,39928E-001	-3,29359E-006	0,00000E+000	3,40000E-001	0,00000E+000	7	...........	-32768,00
	243	3,48513	3,42930E-001	-3,19903E-006	0,00000E+000	3,43001E-001	0,00000E+000	7	...........	-32768,00
	246	3,52798	3,45833E-001	-3,08642E-006	0,00000E+000	3,46001E-001	0,00000E+000	7	...........	-32768,00
	249	3,57083	3,48936E-001	-2,96779E-006	0,00000E+000	3,49001E-001	0,00000E+000	7	...........	-32768,00
	252	3,61368	3,51839E-001	-2,86454E-006	0,00000E+000	3,52001E-001	0,00000E+000	7	...........	-32768,00
	255	3,65653	3,54742E-001	-2,74023E-006	0,00000E+000	3,55002E-001	0,00000E+000	7	...........	-32768,00
	258	3,69938	3,57845E-001	-2,58886E-006	0,00000E+000	3,58002E-001	0,00000E+000	7	...........	-32768,00
	261	3,74223	3,60848E-001	-2,46489E-006	0,00000E+000	3,61002E-001	0,00000E+000	7	...........	-32768,00
	264	3,78508	3,63851E-001	-2,30482E-006	0,00000E+000	3,64002E-001	0,00000E+000	7	...........	-32768,00
	267	3,82793	3,66853E-001	-2,14944E-006	0,00000E+000	3,67003E-001	0,00000E+000	7	...........	-32768,00
	270	3,87078	3,69956E-001	-1,97000E-006	0,00000E+000	3,70003E-001	0,00000E+000	7	...........	-32768,00
	273	3,91363	3,72859E-001	-1,80726E-006	0,00000E+000	3,73003E-001	0,00000E+000	7	...........	-32768,00
	276	3,95648	3,75862E-001	-1,62114E-006	0,00000E+000	3,76003E-001	0,00000E+000	7	...........	-32768,00
	279	3,99933	3,78765E-001	-1,42800E-006	0,00000E+000	3,79004E-001	0,00000E+000	7	...........	-32768,00
	282	4,04218	3,81868E-001	-1,23051E-006	0,00000E+000	3,82004E-001	0,00000E+000	7	...........	-32768,00
	285	4,08503	3,84871E-001	-1,00729E-006	0,00000E+000	3,85004E-001	0,00000E+000	7	...........	-32768,00
	288	4,12788	3,87974E-001	-8,05796E-007	0,00000E+000	3,88004E-001	0,00000E+000	7	...........	-32768,00
	291	4,17073	3,90877E-001	-5,68544E-007	0,00000E+000	3,91005E-001	0,00000E+000	7	...........	-32768,00
	294	4,21358	3,93879E-001	-3,43991E-007	0,00000E+000	3,94005E-001	0,00000E+000	7	...........	-32768,00
	297	4,25643	3,96882E-001	-1,19772E-007	0,00000E+000	3,97005E-001	0,00000E+000	7	...........	-32768,00
	300	4,29928	3,99885E-001	1,32517E-007	0,00000E+000	4,00005E-001	0,00000E+000	7	...........	-32768,00
	303	4,34213	4,02888E-001	3,71105E-007	0,00000E+000	4,03005E-001	0,00000E+000	7	...........	-32768,00
	306	4,38498	4,05891E-001	6,17379E-007	0,00000E+000	4,05993E-001	0,00000E+000	7	...........	-32768,00
	309	4,42783	4,08794E-001	8,63986E-007	0,00000E+000	4,08993E-001	0,00000E+000	7	...........	-32768,00
	312	4,47068	4,11797E-001	1,14535E-006	0,00000E+000	4,11994E-001	0,00000E+000	7	...........	-32768,00
	315	4,51353	4,14799E-001	1,39764E-006	0,00000E+000	4,14994E-001	0,00000E+000	7	...........	-32768,00
	318	4,55638	4,17802E-001	1,68033E-006	0,00000E+000	4,17994E-001	0,00000E+000	7	...........	-32768,00
	321	4,59923	4,20805E-001	1,95668E-006	0,00000E+000	4,20994E-001	0,00000E+000	7	...........	-32768,00
	324	4,64208	4,23908E-001	2,24272E-006	0,00000E+000	4,23995E-001	0,00000E+000	7	...........	-32768,00
	327	4,68493	4,26911E-001	2,55048E-006	0,00000E+000	4,26995E-001	0,00000E+000	7	...........	-32768,00
	330	4,72778	4,29814E-001	2,87361E-006	0,00000E+000	4,29995E-001	0,00000E+000	7	...........	-32768,00
	333	4,77063	4,32817E-001	3,20542E-006	0,00000E+000	4,32995E-001	0,00000E+000	7	...........	-32768,00
	336	4,81348	4,35920E-001	3,55863E-006	0,00000E+000	4,35996E-001	0,00000E+000	7	...........	-32768,00
	339	4,85633	4,38823E-001	3,93856E-006	0,00000E+000	4,38996E-001	0,00000E+000	7	...........	-32768,00
	342	4,89918	4,41926E-001	4,34724E-006	0,00000E+000	4,41996E-001	0,00000E+000	7	...........	-32768,00
	345	4,94203	4,44928E-001	4,76193E-006	0,00000E+000	4,44996E-001	0,00000E+000	7	...........	-32768,00
	348	4,98488	4,47831E-001	5,24211E-006	0,00000E+000	4,47997E-001	0,00000E+000	7	...........	-32768,00
	351	5,02773	4,50734E-001	5,74802E-006	0,00000E+000	4,50997E-001	0,00000E+000	7	...........	-32768,00
	354	5,07058	4,53837E-001	6,29003E-006	0,00000E+000	4,53997E-001	0,00000E+000	7	...........	-32768,00
	357	5,11343	4,56840E-001	6,87246E-006	0,00000E+000	4,56997E-001	0,00000E+000	7	...........	-32768,00
	360	5,15628	4,59843E-001	7,50001E-006	0,00000E+000	4,59998E-001	0,00000E+000	7	...........	-32768,00
	363	5,19913	4,62846E-001	8,17567E-006	0,00000E+000	4,62998E-001	0,00000E+000	7	...........	-32768,00
	366	5,24198	4,65849E-001	8,89745E-006	0,00000E+000	4,65998E-001	0,00000E+000	7	...........	-32768,00
	369	5,28483	4,68851E-001	9,66666E-006	0,00000E+000	4,68998E-001	0,00000E+000	8	...........	-32768,00
	372	5,32768	4,71854E-001	1,04885E-005	0,00000E+000	4,71999E-001	0,00000E+000	8	...........	-32768,00
	375	5,37053	4,74857E-001	1,13905E-005	0,00000E+000	4,74999E-001	0,00000E+000	8	...........	-32768,00
	378	5,41338	4,77960E-001	1,23326E-005	0,00000E+000	4,77999E-001	0,00000E+000	8	...........	-32768,00
	381	5,45623	4,80863E-001	1,33515E-005	0,00000E+000	4,80999E-001	0,00000E+000	8	...........	-32768,00
	384	5,49908	4,83866E-001	1,44472E-005	0,00000E+000	4,83999E-001	0,00000E+000	8	...........	-32768,00
	387	5,54193	4,86869E-001	1,55864E-005	0,00000E+000	4,87000E-001	0,00000E+000	8	...........	-32768,00
	390	5,58478	4,89872E-001	1,68392E-005	0,00000E+000	4,90000E-001	0,00000E+000	8	...........	-32768,00
	393	5,62763	4,92774E-001	1,81388E-005	0,00000E+000	4,93000E-001	0,00000E+000	8	...........	-32768,00
	396	5,67048	4,95777E-001	1,95285E-005	0,00000E+000	4,96000E-001	0,00000E+000	8	...........	-32768,00
	399	5,71333	4,98780E-001	2,09817E-005	0,00000E+000	4,99001E-001	0,00000E+000	8	...........	-32768,00
	402	5,75618	5,01783E-001	2,25018E-005	0,00000E+000	5,02001E-001	0,00000E+000	8	...........	-32768,00
	405	5,79903	5,04986E-001	2,41153E-005	0,00000E+000	5,05001E-001	0,00000E+000	8	...........	-32768,00
	408	5,84188	5,07789E-001	2,58024E-005	0,00000E+000	5,08001E-001	0,00000E+000	8	...........	-32768,00
	411	5,88473	5,10892E-001	2,75496E-005	0,00000E+000	5,11002E-001	0,00000E+000	8	...........	-32768,00
	414	5,92758	5,13895E-001	2,93904E-005	0,00000E+000	5,14002E-001	0,00000E+000	8	...........	-32768,00
	417	5,97043	5,16898E-001	3,13079E-005	0,00000E+000	5,17002E-001	0,00000E+000	8	...........	-32768,00
	420	6,01328	5,19901E-001	3,32957E-005	0,00000E+000	5,20002E-001	0,00000E+000	8	...........	-32768,00
	423	6,05613	5,22803E-001	3,53870E-005	0,00000E+000	5,23003E-001	0,00000E+000	8	...........	-32768,00
	426	6,09898	5,25906E-001	3,75384E-005	0,00000E+000	5,26003E-001	0,00000E+000	8	...........	-32768,00
	429	6,14183	5,28909E-001	3,97901E-005	0,00000E+000	5,29003E-001	0,00000E+000	8	...........	-32768,00
	432	6,18468	5,32012E-001	4,21052E-005	0,00000E+000	5,32003E-001	0,00000E+000	8	...........	-32768,00
	435	6,22753	5,34815E-001	4,45172E-005	0,00000E+000	5,35004E-001	0,00000E+000	8	...........	-32768,00
	438	6,27038	5,37918E-001	4,70261E-005	0,00000E+000	5,38004E-001	0,00000E+000	8	...........	-32768,00
	441	6,31323	5,40921E-001	4,95885E-005	0,00000E+000	5,41004E-001	0,00000E+000	8	...........	-32768,00
	444	6,35608	5,43924E-001	5,22777E-005	0,00000E+000	5,44004E-001	0,00000E+000	8	...........	-32768,00
	447	6,39893	5,46826E-001	5,50205E-005	0,00000E+000	5,47005E-001	0,00000E+000	8	...........	-32768,00
	450	6,44178	5,49829E-001	5,78768E-005	0,00000E+000	5,50005E-001	0,00000E+000	8	...........	-32768,00
	453	6,48463	5,52832E-001	6,07732E-005	0,00000E+000	5,53005E-001	0,00000E+000	8	...........	-32768,00
	456	6,52748	5,55835E-001	6,37866E-005	0,00000E+000	5,55993E-001	0,00000E+000	8	...........	-32768,00
	459	6,57033	5,58838E-001	6,68901E-005	0,00000E+000	5,58993E-001	0,00000E+000	8	...........	-32768,00
	462	6,61318	5,61841E-001	7,00805E-005	0,00000E+000	5,61993E-001	0,00000E+000	8	...........	-32768,00
	465	6,65603	5,64844E-001	7,33544E-005	0,00000E+000	5,64994E-001	0,00000E+000	8	...........	-32768,00
	468	6,69888	5,67947E-001	7,67119E-005	0,00000E+000	5,67994E-001	0,00000E+000	8	...........	-32768,00
	471	6,74173	5,70849E-001	8,01629E-005	0,00000E+000	5,70994E-001	0,00000E+000	8	...........	-32768,00
	474	6,78458	5,73852E-001	8,36773E-005	0,00000E+000	5,73994E-001	0,00000E+000	8	...........	-32768,00
	477	6,82743	5,76855E-001	8,73221E-005	0,00000E+000	5,76994E-001	0,00000E+000	8	...........	-32768,00
	480	6,87028	5,79858E-001	9,09142E-005	0,00000E+000	5,79995E-001	0,00000E+000	9	...........	-32768,00
	483	6,91313	5,82761E-001	9,47196E-005	0,00000E+000	5,82995E-001	0,00000E+000	9	...........	-32768,00
	486	6,95598	5,85864E-001	9,84582E-005	0,00000E+000	5,85995E-001	0,00000E+000	9	...........	-32768,00
	489	6,99883	5,88867E-001	1,02264E-004	0,00000E+000	5,88995E-001	0,00000E+000	9	...........	-32768,00
	492	7,04168	5,91870E-001	1,06069E-004	0,00000E+000	5,91996E-001	0,00000E+000	9	...........	-32768,00
	495	7,08453	5,94872E-001	1,09774E-004	0,00000E+000	5,94996E-001	0,00000E+000	9	...........	-32768,00
	498	7,12738	5,97875E-001	1,13346E-004	0,00000E+000	5,97996E-001	0,00000E+000	9	...........	-32768,00
	501	7,17023	6,00878E-001	1,16684E-004	0,00000E+000	6,00996E-001	0,00000E+000	9	...........	-32768,00
	504	7,21308	6,03881E-001	1,19755E-004	0,00000E+000	6,03997E-001	0,00000E+000	9	...........	-32768,00
	507	7,25593	6,06984E-001	1,22559E-004	0,00000E+000	6,06997E-001	0,00000E+000	9	...........	-32768,00
	510	7,29878	6,09887E-001	1,24996E-004	0,00000E+000	6,09997E-001	0,00000E+000	9	...........	-32768,00
	513	7,34163	6,12790E-001	1,27099E-004	0,00000E+000	6,12997E-001	0,00000E+000	9	...........	-32768,00
	516	7,38448	6,15893E-001	1,28935E-004	0,00000E+000	6,15998E-001	0,00000E+000	9	...........	-32768,00
	519	7,42733	6,18896E-001	1,30403E-004	0,00000E+000	6,18998E-001	0,00000E+000	9	...........	-32768,00
	522	7,47018	6,21999E-001	1,31371E-004	0,00000E+000	6,21998E-001	0,00000E+000	9	...........	-32768,00
	525	7,51303	6,24801E-001	1,32006E-004	0,00000E+000	6,24998E-001	0,00000E+000	9	...........	-32768,00
	528	7,55588	6,27904E-001	1,31905E-004	0,00000E+000	6,27999E-001	0,00000E+000	9	...........	-32768,00
	531	7,59873	6,30907E-001	1,31204E-004	0,00000E+000	6,30999E-001	0,00000E+000	9	...........	-32768,00
	534	7,64158	6,33910E-001	1,29769E-004	0,00000E+000	6,33999E-001	0,00000E+000	9	...........	-32768,00
	537	7,68443	6,36913E-001	1,27266E-004	0,00000E+000	6,36999E-001	0,00000E+000	9	...........	-32768,00
	540	7,72728	6,39916E-001	1,23460E-004	0,00000E+000	6,40000E-001	0,00000E+000	9	...........	-32768,00
	543	7,77013	6,42919E-001	1,17952E-004	0,00000E+000	6,43000E-001	0,00000E+000	9	...........	-32768,00
	546	7,81298	6,45922E-001	1,10408E-004	0,00000E+000	6,46000E-001	0,00000E+000	9	...........	-32768,00
	549	7,85583	6,48824E-001	1,00394E-004	0,00000E+000	6,49000E-001	0,00000E+000	9	...........	-32768,00
	552	7,89868	6,51827E-001	8,73091E-005	0,00000E+000	6,52000E-001	0,00000E+000	9	...........	-32768,00
	555	7,94153	6,54930E-001	7,15104E-005	0,00000E+000	6,55001E-001	0,00000E+000	8	...........	-32768,00
	558	7,98438	6,57933E-001	5,86819E-005	0,00000E+000	6,58001E-001	0,00000E+000	8	...........	-32768,00
	561	8,02723	6,60836E-001	5,12555E-005	0,00000E+000	6,61001E-001	0,00000E+000	8	...........	-32768,00
	564	8,07008	6,63939E-001	4,63079E-005	0,00000E+000	6,64001E-001	0,00000E+000	8	...........	-32768,00
	567	8,11293	6,66942E-001	4,25829E-005	0,00000E+000	6,67002E-001	0,00000E+000	8	...........	-32768,00
	570	8,15578	6,69845E-001	3,96498E-005	0,00000E+000	6,70002E-001	0,00000E+000	8	...........	-32768,00
	573	8,19863	6,72847E-001	3,72444E-005	0,00000E+000	6,73002E-001	0,00000E+000	8	...........	-32768,00
	576	8,24148	6,75950E-001	3,52032E-005	0,00000E+000	6,76002E-001	0,00000E+000	8	...........	-32768,00
	579	8,28433	6,78853E-001	3,34828E-005	0,00000E+000	6,79003E-001	0,00000E+000	8	...........	-32768,00
	582	8,32718	6,81956E-001	3,20062E-005	0,00000E+000	6,82003E-001	0,00000E+000	8	...........	-32768,00
	585	8,37003	6,84859E-001	3,07033E-005	0,00000E+000	6,85003E-001	0,00000E+000	8	...........	-32768,00
	588	8,41288	6,87962E-001	2,95607E-005	0,00000E+000	6,88003E-001	0,00000E+000	8	...........	-32768,00
	591	8,45573	6,90865E-001	2,85351E-005	0,00000E+000	6,91004E-001	0,00000E+000	8	...........	-32768,00
	594	8,49858	6,93868E-001	2,76265E-005	0,00000E+000	6,94004E-001	0,00000E+000	8	...........	-32768,00
	597	8,54143	6,96871E-001	2,68180E-005	0,00000E+000	6,97004E-001	0,00000E+000	8	...........	-32768,00
	600	8,58428	6,99973E-001	2,60530E-005	0,00000E+000	7,00004E-001	0,00000E+000	8	...........	-32768,00
	603	8,62713	7,02976E-001	2,53781E-005	0,00000E+000	7,03005E-001	0,00000E+000	8	...........	-32768,00
	606	8,66998	7,05979E-001	2,48069E-005	0,00000E+000	7,06005E-001	0,00000E+000	8	...........	-32768,00
	609	8,71283	7,08882E-001	2,42256E-005	0,00000E+000	7,08993E-001	0,00000E+000	8	...........	-32768,00
	612	8,75568	7,11985E-001	2,37111E-005	0,00000E+000	7,11993E-001	0,00000E+000	8	...........	-32768,00
	615	8,79853	7,14788E-001	2,32133E-005	0,00000E+000	7,14993E-001	0,00000E+000	8	...........	-32768,00
	618	8,84138	7,17891E-001	2,27891E-005	0,00000E+000	7,17993E-001	0,00000E+000	8	...........	-32768,00
	621	8,88423	7,20994E-001	2,24082E-005	0,00000E+000	7,20994E-001	0,00000E+000	8	...........	-32768,00
	624	8,92708	7,23896E-001	2,19539E-005	0,00000E+000	7,23994E-001	0,00000E+000	8	...........	-32768,00
	627	8,96993	7,26799E-001	2,16499E-005	0,00000E+000	7,26994E-001	0,00000E+000	8	...........	-32768,00
	630	9,01278	7,30002E-001	2,13860E-005	0,00000E+000	7,29994E-001	0,00000E+000	8	...........	-32768,00
	633	9,05563	7,32905E-001	2,10318E-005	0,00000E+000	7,32994E-001	0,00000E+000	8	...........	-32768,00
	636	9,09848	7,35908E-001	2,07078E-005	0,00000E+000	7,35995E-001	0,00000E+000	8	...........	-32768,00
	639	9,14133	7,38811E-001	2,05307E-005	0,00000E+000	7,38995E-001	0,00000E+000	8	...........	-32768,00
	642	9,18418	7,41914E-001	2,01566E-005	0,00000E+000	7,41995E-001	0,00000E+000	8	...........	-32768,00
	645	9,22703	7,44917E-001	1,98826E-005	0,00000E+000	7,44995E-001	0,00000E+000	8	...........	-32768,00
	648	9,26988	7,48020E-001	1,96521E-005	0,00000E+000	7,47996E-001	0,00000E+000	8	...........	-32768,00
	651	9,31273	7,50922E-001	1,94450E-005	0,00000E+000	7,50996E-001	0,00000E+000	8	...........	-32768,00
	654	9,35558	7,53825E-001	1,92479E-005	0,00000E+000	7,53996E-001	0,00000E+000	8	...........	-32768,00
	657	9,39843	7,57028E-001	1,90842E-005	0,00000E+000	7,56996E-001	0,00000E+000	8	...........	-32768,00
	660	9,44128	7,59931E-001	1,88904E-005	0,00000E+000	7,59997E-001	0,00000E+000	8	...........	-32768,00
	663	9,48413	7,62934E-001	1,86800E-005	0,00000E+000	7,62997E-001	0,00000E+000	8	...........	-32768,00
	666	9,527	7,65937E-001	1,84795E-005	0,00000E+000	7,65997E-001	0,00000E+000	8	...........	-32768,00
	669	9,5698	7,68940E-001	1,83325E-005	0,00000E+000	7,68997E-001	0,00000E+000	8	...........	-32768,00
	672	9,6127	7,71943E-001	1,82757E-005	0,00000E+000	7,71998E-001	0,00000E+000	8	...........	-32768,00
	675	9,6555	7,74845E-001	1,83927E-005	0,00000E+000	7,74998E-001	0,00000E+000	8	...........	-32768,00
	678	9,6984	7,78049E-001	1,84495E-005	0,00000E+000	7,77998E-001	0,00000E+000	8	...........	-32768,00
	681	9,7412	7,80851E-001	1,78815E-005	0,00000E+000	7,80998E-001	0,00000E+000	8	...........	-32768,00
	684	9,7841	7,83954E-001	1,77011E-005	0,00000E+000	7,83999E-001	0,00000E+000	8	...........	-32768,00
	687	9,8269	7,86957E-001	1,76677E-005	0,00000E+000	7,86999E-001	0,00000E+000	8	...........	-32768,00
	690	9,8698	7,89960E-001	1,76878E-005	0,00000E+000	7,89999E-001	0,00000E+000	8	...........	-32768,00
	693	9,9126	7,92963E-001	1,77679E-005	0,00000E+000	7,92999E-001	0,00000E+000	8	...........	-32768,00
	696	9,9555	7,95866E-001	1,75007E-005	0,00000E+000	7,96000E-001	0,00000E+000	8	...........	-32768,00
	699	9,9983	7,98969E-001	1,71967E-005	0,00000E+000	7,99000E-001	0,00000E+000	8	...........	-32768,00
	702	10,0412	7,97968E-001	1,75575E-005	0,00000E+000	7,98000E-001	0,00000E+000	8	...........	-32768,00
	705	10,084	7,94965E-001	1,61777E-005	0,00000E+000	7,94999E-001	0,00000E+000	8	...........	-32768,00
	708	10,1269	7,91962E-001	1,53893E-005	0,00000E+000	7,91999E-001	0,00000E+000	8	...........	-32768,00
	711	10,1697	7,88959E-001	1,48782E-005	0,00000E+000	7,88999E-001	0,00000E+000	8	...........	-32768,00
	714	10,2126	7,85956E-001	1,43671E-005	0,00000E+000	7,85999E-001	0,00000E+000	8	...........	-32768,00
	717	10,2554	7,82953E-001	1,38860E-005	0,00000E+000	7,82998E-001	0,00000E+000	8	...........	-32768,00
	720	10,2983	7,79850E-001	1,34718E-005	0,00000E+000	7,79998E-001	0,00000E+000	8	...........	-32768,00
	723	10,3411	7,76947E-001	1,30675E-005	0,00000E+000	7,76998E-001	0,00000E+000	8	...........	-32768,00
	726	10,384	7,73944E-001	1,28270E-005	0,00000E+000	7,73998E-001	0,00000E+000	8	...........	-32768,00
	729	10,4268	7,70842E-001	1,23927E-005	0,00000E+000	7,70998E-001	0,00000E+000	8	...........	-32768,00
	732	10,4697	7,67939E-001	1,20853E-005	0,00000E+000	7,67997E-001	0,00000E+000	8	...........	-32768,00
	735	10,5125	7,64836E-001	1,17145E-005	0,00000E+000	7,64997E-001	0,00000E+000	8	...........	-32768,00
	738	10,5554	7,61933E-001	1,12769E-005	0,00000E+000	7,61997E-001	0,00000E+000	8	...........	-32768,00
	741	10,5982	7,58930E-001	1,10965E-005	0,00000E+000	7,58997E-001	0,00000E+000	8	...........	-32768,00
	744	10,6411	7,55927E-001	1,06589E-005	0,00000E+000	7,55996E-001	0,00000E+000	8	...........	-32768,00
	747	10,6839	7,52824E-001	1,04484E-005	0,00000E+000	7,52996E-001	0,00000E+000	8	...........	-32768,00
	750	10,7268	7,49921E-001	1,06822E-005	0,00000E+000	7,49996E-001	0,00000E+000	8	...........	-32768,00
	753	10,7696	7,47019E-001	1,00007E-005	0,00000E+000	7,46996E-001	0,00000E+000	8	...........	-32768,00
	756	10,8125	7,44016E-001	1,00141E-005	0,00000E+000	7,43995E-001	0,00000E+000	8	...........	-32768,00
	759	10,8553	7,40913E-001	9,63993E-006	0,00000E+000	7,40995E-001	0,00000E+000	8	...........	-32768,00
	762	10,8982	7,37910E-001	9,05196E-006	0,00000E+000	7,37995E-001	0,00000E+000	8	...........	-32768,00
	765	10,941	7,35007E-001	8,78136E-006	0,00000E+000	7,34995E-001	0,00000E+000	8	...........	-32768,00
	768	10,9839	7,31904E-001	8,56755E-006	0,00000E+000	7,31994E-001	0,00000E+000	8	...........	-32768,00
	771	11,0267	7,28901E-001	8,37045E-006	0,00000E+000	7,28994E-001	0,00000E+000	8	...........	-32768,00
	774	11,0696	7,25898E-001	8,16333E-006	0,00000E+000	7,25994E-001	0,00000E+000	8	...........	-32768,00
	777	11,1124	7,22896E-001	7,88797E-006	0,00000E+000	7,22994E-001	0,00000E+000	7	...........	-32768,00
	780	11,1553	7,19893E-001	7,71721E-006	0,00000E+000	7,19993E-001	0,00000E+000	7	...........	-32768,00
	783	11,1981	7,16790E-001	7,50369E-006	0,00000E+000	7,16993E-001	0,00000E+000	7	...........	-32768,00
	786	11,241	7,13987E-001	7,31756E-006	0,00000E+000	7,13993E-001	0,00000E+000	7	...........	-32768,00
	789	11,2838	7,10884E-001	7,13143E-006	0,00000E+000	7,10993E-001	0,00000E+000	7	...........	-32768,00
	792	11,3267	7,07881E-001	6,93528E-006	0,00000E+000	7,07992E-001	0,00000E+000	7	...........	-32768,00
	795	11,3695	7,04778E-001	6,77088E-006	0,00000E+000	7,05005E-001	0,00000E+000	7	...........	-32768,00
	798	11,4124	7,01875E-001	6,59411E-006	0,00000E+000	7,02004E-001	0,00000E+000	7	...........	-32768,00
	801	11,4552	6,98872E-001	6,44508E-006	0,00000E+000	6,99004E-001	0,00000E+000	7	...........	-32768,00
	804	11,4981	6,95970E-001	6,28368E-006	0,00000E+000	6,96004E-001	0,00000E+000	7	...........	-32768,00
	807	11,5409	6,92867E-001	6,14333E-006	0,00000E+000	6,93004E-001	0,00000E+000	7	...........	-32768,00
	810	11,5838	6,89864E-001	5,97960E-006	0,00000E+000	6,90004E-001	0,00000E+000	7	...........	-32768,00
	813	11,6266	6,86961E-001	5,86231E-006	0,00000E+000	6,87003E-001	0,00000E+000	7	...........	-32768,00
	816	11,6695	6,83858E-001	5,81920E-006	0,00000E+000	6,84003E-001	0,00000E+000	7	...........	-32768,00
	819	11,7123	6,80955E-001	5,56056E-006	0,00000E+000	6,81003E-001	0,00000E+000	7	...........	-32768,00
	822	11,7552	6,77852E-001	5,47535E-006	0,00000E+000	6,78003E-001	0,00000E+000	7	...........	-32768,00
	825	11,798	6,74849E-001	5,37277E-006	0,00000E+000	6,75002E-001	0,00000E+000	7	...........	-32768,00
	828	11,8409	6,71947E-001	5,17294E-006	0,00000E+000	6,72002E-001	0,00000E+000	7	...........	-32768,00
	831	11,8837	6,68944E-001	5,08238E-006	0,00000E+000	6,69002E-001	0,00000E+000	7	...........	-32768,00
	834	11,9266	6,65841E-001	4,90561E-006	0,00000E+000	6,66002E-001	0,00000E+000	7	...........	-32768,00
	837	11,9694	6,62838E-001	4,79467E-006	0,00000E+000	6,63001E-001	0,00000E+000	7	...........	-32768,00
	840	12,0123	6,59835E-001	4,67805E-006	0,00000E+000	6,60001E-001	0,00000E+000	7	...........	-32768,00
	843	12,0551	6,56932E-001	4,60888E-006	0,00000E+000	6,57001E-001	0,00000E+000	7	...........	-32768,00
	846	12,098	6,53929E-001	4,44348E-006	0,00000E+000	6,54001E-001	0,00000E+000	7	...........	-32768,00
	849	12,1408	6,50926E-001	4,24799E-006	0,00000E+000	6,51000E-001	0,00000E+000	7	...........	-32768,00
	852	12,1837	6,47823E-001	4,15744E-006	0,00000E+000	6,48000E-001	0,00000E+000	7	...........	-32768,00
	855	12,2265	6,44820E-001	4,04215E-006	0,00000E+000	6,45000E-001	0,00000E+000	7	...........	-32768,00
	858	12,2694	6,41818E-001	3,93957E-006	0,00000E+000	6,42000E-001	0,00000E+000	7	...........	-32768,00
	861	12,3122	6,38815E-001	3,94491E-006	0,00000E+000	6,38999E-001	0,00000E+000	7	...........	-32768,00
	864	12,3551	6,35912E-001	3,73607E-006	0,00000E+000	6,35999E-001	0,00000E+000	7	...........	-32768,00
	867	12,3979	6,32909E-001	3,70198E-006	0,00000E+000	6,32999E-001	0,00000E+000	7	...........	-32768,00
	870	12,4408	6,29806E-001	3,55261E-006	0,00000E+000	6,29999E-001	0,00000E+000	7	...........	-32768,00
	873	12,4836	6,26903E-001	3,35947E-006	0,00000E+000	6,26998E-001	0,00000E+000	7	...........	-32768,00
	876	12,5265	6,23800E-001	3,28997E-006	0,00000E+000	6,23998E-001	0,00000E+000	7	...........	-32768,00
	879	12,5693	6,20897E-001	3,14795E-006	0,00000E+000	6,20998E-001	0,00000E+000	7	...........	-32768,00
	882	12,6122	6,17895E-001	3,01629E-006	0,00000E+000	6,17998E-001	0,00000E+000	7	...........	-32768,00
	885	12,655	6,14892E-001	2,91137E-006	0,00000E+000	6,14998E-001	0,00000E+000	7	...........	-32768,00
	888	12,6979	6,11889E-001	2,84286E-006	0,00000E+000	6,11997E-001	0,00000E+000	7	...........	-32768,00
	891	12,7407	6,08886E-001	2,71421E-006	0,00000E+000	6,08997E-001	0,00000E+000	7	...........	-32768,00
	894	12,7836	6,05883E-001	2,61330E-006	0,00000E+000	6,05997E-001	0,00000E+000	7	...........	-32768,00
	897	12,8264	6,02880E-001	2,50436E-006	0,00000E+000	6,02997E-001	0,00000E+000	7	...........	-32768,00
	900	12,8693	5,99777E-001	2,40512E-006	0,00000E+000	5,99996E-001	0,00000E+000	7	...........	-32768,00
	903	12,9121	5,96874E-001	2,29150E-006	0,00000E+000	5,96996E-001	0,00000E+000	7	...........	-32768,00
	906	12,955	5,93872E-001	2,19794E-006	0,00000E+000	5,93996E-001	0,00000E+000	7	...........	-32768,00
	909	12,9978	5,90869E-001	2,08633E-006	0,00000E+000	5,90996E-001	0,00000E+000	7	...........	-32768,00
	912	13,0407	5,87866E-001	1,98408E-006	0,00000E+000	5,87995E-001	0,00000E+000	7	...........	-32768,00
	915	13,0835	5,84863E-001	1,89820E-006	0,00000E+000	5,84995E-001	0,00000E+000	7	...........	-32768,00
	918	13,1264	5,81860E-001	1,76989E-006	0,00000E+000	5,81995E-001	0,00000E+000	7	...........	-32768,00
	921	13,1692	5,78857E-001	1,68701E-006	0,00000E+000	5,78995E-001	0,00000E+000	7	...........	-32768,00
	924	13,2121	5,75854E-001	1,58309E-006	0,00000E+000	5,75994E-001	0,00000E+000	7	...........	-32768,00
	927	13,2549	5,72851E-001	1,48919E-006	0,00000E+000	5,72994E-001	0,00000E+000	7	...........	-32768,00
	930	13,2978	5,69848E-001	1,37057E-006	0,00000E+000	5,69994E-001	0,00000E+000	7	...........	-32768,00
	933	13,3406	5,66846E-001	1,27400E-006	0,00000E+000	5,66994E-001	0,00000E+000	7	...........	-32768,00
	936	13,3835	5,63843E-001	1,17676E-006	0,00000E+000	5,63993E-001	0,00000E+000	7	...........	-32768,00
	939	13,4263	5,60840E-001	1,07684E-006	0,00000E+000	5,60993E-001	0,00000E+000	7	...........	-32768,00
	942	13,4692	5,57837E-001	9,97649E-007	0,00000E+000	5,57993E-001	0,00000E+000	7	...........	-32768,00
	945	13,512	5,54834E-001	8,92724E-007	0,00000E+000	5,55005E-001	0,00000E+000	7	...........	-32768,00
	948	13,5549	5,51831E-001	8,19544E-007	0,00000E+000	5,52005E-001	0,00000E+000	7	...........	-32768,00
	951	13,5977	5,48828E-001	7,27985E-007	0,00000E+000	5,49005E-001	0,00000E+000	7	...........	-32768,00
	954	13,6406	5,45925E-001	6,46450E-007	0,00000E+000	5,46004E-001	0,00000E+000	7	...........	-32768,00
	957	13,6834	5,43023E-001	5,66921E-007	0,00000E+000	5,43004E-001	0,00000E+000	7	...........	-32768,00
	960	13,7263	5,39820E-001	4,96080E-007	0,00000E+000	5,40004E-001	0,00000E+000	7	...........	-32768,00
	963	13,7691	5,36817E-001	4,48964E-007	0,00000E+000	5,37004E-001	0,00000E+000	7	...........	-32768,00
	966	13,812	5,33914E-001	3,82132E-007	0,00000E+000	5,34003E-001	0,00000E+000	7	...........	-32768,00
	969	13,8548	5,30911E-001	3,29001E-007	0,00000E+000	5,31003E-001	0,00000E+000	7	...........	-32768,00
	972	13,8977	5,27908E-001	2,53482E-007	0,00000E+000	5,28003E-001	0,00000E+000	7	...........	-32768,00
	975	13,9405	5,24905E-001	2,04361E-007	0,00000E+000	5,25003E-001	0,00000E+000	7	...........	-32768,00
	978	13,9834	5,21802E-001	1,56910E-007	0,00000E+000	5,22003E-001	0,00000E+000	7	...........	-32768,00
	981	14,0262	5,18799E-001	9,54254E-008	0,00000E+000	5,19002E-001	0,00000E+000	7	...........	-32768,00
	984	14,0691	5,15997E-001	5,43241E-008	0,00000E+000	5,16002E-001	0,00000E+000	7	...........	-32768,00
	987	14,1119	5,12894E-001	2,86395E-009	0,00000E+000	5,13002E-001	0,00000E+000	7	...........	-32768,00
	990	14,1548	5,09791E-001	-5,56135E-008	0,00000E+000	5,10002E-001	0,00000E+000	7	...........	-32768,00
	993	14,1976	5,06788E-001	-1,13423E-007	0,00000E+000	5,07001E-001	0,00000E+000	7	...........	-32768,00
	996	14,2405	5,03785E-001	-1,47173E-007	0,00000E+000	5,04001E-001	0,00000E+000	7	...........	-32768,00
	999	14,2833	5,00882E-001	-2,11331E-007	0,00000E+000	5,01001E-001	0,00000E+000	7	...........	-32768,00
	1002	14,3262	4,97779E-001	-2,70811E-007	0,00000E+000	4,98001E-001	0,00000E+000	7	...........	-32768,00
	1005	14,369	4,94876E-001	-3,12914E-007	0,00000E+000	4,95000E-001	0,00000E+000	7	...........	-32768,00
	1008	14,4119	4,91874E-001	-3,86429E-007	0,00000E+000	4,92000E-001	0,00000E+000	7	...........	-32768,00
	1011	14,4547	4,88871E-001	-4,36218E-007	0,00000E+000	4,89000E-001	0,00000E+000	7	...........	-32768,00
	1014	14,4976	4,85868E-001	-4,99040E-007	0,00000E+000	4,86000E-001	0,00000E+000	7	...........	-32768,00
	1017	14,5404	4,82865E-001	-5,51168E-007	0,00000E+000	4,82999E-001	0,00000E+000	7	...........	-32768,00
	1020	14,5833	4,79862E-001	-6,18334E-007	0,00000E+000	4,79999E-001	0,00000E+000	7	...........	-32768,00
	1023	14,6261	4,76759E-001	-6,86168E-007	0,00000E+000	4,76999E-001	0,00000E+000	7	...........	-32768,00
	1026	14,669	4,73856E-001	-7,45982E-007	0,00000E+000	4,73999E-001	0,00000E+000	7	...........	-32768,00
	1029	14,7118	4,70853E-001	-8,29521E-007	0,00000E+000	4,70998E-001	0,00000E+000	7	...........	-32768,00
	1032	14,7547	4,67850E-001	-9,10387E-007	0,00000E+000	4,67998E-001	0,00000E+000	7	...........	-32768,00
	1035	14,7975	4,64747E-001	-9,98605E-007	0,00000E+000	4,64998E-001	0,00000E+000	7	...........	-32768,00
	1038	14,8404	4,61845E-001	-1,08148E-006	0,00000E+000	4,61998E-001	0,00000E+000	7	...........	-32768,00
	1041	14,8832	4,58742E-001	-1,18105E-006	0,00000E+000	4,58997E-001	0,00000E+000	7	...........	-32768,00
	1044	14,9261	4,55839E-001	-1,29099E-006	0,00000E+000	4,55997E-001	0,00000E+000	7	...........	-32768,00
	1047	14,9689	4,52836E-001	-1,39458E-006	0,00000E+000	4,52997E-001	0,00000E+000	7	...........	-32768,00
	1050	15,0118	4,49933E-001	-1,57469E-006	0,00000E+000	4,49997E-001	0,00000E+000	7	...........	-32768,00
	1053	15,0546	4,46830E-001	-1,84436E-006	0,00000E+000	4,46997E-001	0,00000E+000	7	...........	-32768,00
	1056	15,0975	4,43727E-001	-2,23532E-006	0,00000E+000	4,43996E-001	0,00000E+000	7	...........	-32768,00
	1059	15,1403	4,40925E-001	-2,82444E-006	0,00000E+000	4,40996E-001	0,00000E+000	7	...........	-32768,00
	1062	15,1832	4,37822E-001	-3,65281E-006	0,00000E+000	4,37996E-001	0,00000E+000	7	...........	-32768,00
	1065	15,226	4,34919E-001	-4,82303E-006	0,00000E+000	4,34996E-001	0,00000E+000	7	...........	-32768,00
	1068	15,2689	4,31716E-001	-6,30368E-006	0,00000E+000	4,31995E-001	0,00000E+000	7	...........	-32768,00
	1071	15,3117	4,28913E-001	-8,19133E-006	0,00000E+000	4,28995E-001	0,00000E+000	7	...........	-32768,00
	1074	15,3546	4,25810E-001	-1,04880E-005	0,00000E+000	4,25995E-001	0,00000E+000	8	...........	-32768,00
	1077	15,3974	4,22707E-001	-1,31372E-005	0,00000E+000	4,22995E-001	0,00000E+000	8	...........	-32768,00
	1080	15,4403	4,19804E-001	-1,61004E-005	0,00000E+000	4,19994E-001	0,00000E+000	8	...........	-32768,00
	1083	15,4831	4,16801E-001	-1,93009E-005	0,00000E+000	4,16994E-001	0,00000E+000	8	...........	-32768,00
	1086	15,526	4,13799E-001	-2,26683E-005	0,00000E+000	4,13994E-001	0,00000E+000	8	...........	-32768,00
	1089	15,5688	4,10796E-001	-2,60625E-005	0,00000E+000	4,10994E-001	0,00000E+000	8	...........	-32768,00
	1092	15,6117	4,07793E-001	-2,94701E-005	0,00000E+000	4,07993E-001	0,00000E+000	8	...........	-32768,00
	1095	15,6545	4,04790E-001	-3,27908E-005	0,00000E+000	4,04993E-001	0,00000E+000	8	...........	-32768,00
	1098	15,6974	4,01887E-001	-3,59578E-005	0,00000E+000	4,02005E-001	0,00000E+000	8	...........	-32768,00
	1101	15,7402	3,98784E-001	-3,89277E-005	0,00000E+000	3,99005E-001	0,00000E+000	8	...........	-32768,00
	1104	15,7831	3,95881E-001	-4,16671E-005	0,00000E+000	3,96005E-001	0,00000E+000	8	...........	-32768,00
	1107	15,8259	3,92878E-001	-4,41426E-005	0,00000E+000	3,93005E-001	0,00000E+000	8	...........	-32768,00
	1110	15,8688	3,89876E-001	-4,63174E-005	0,00000E+000	3,90004E-001	0,00000E+000	8	...........	-32768,00
	1113	15,9116	3,86873E-001	-4,82116E-005	0,00000E+000	3,87004E-001	0,00000E+000	8	...........	-32768,00
	1116	15,9545	3,83870E-001	-4,97817E-005	0,00000E+000	3,84004E-001	0,00000E+000	8	...........	-32768,00
	1119	15,9973	3,80867E-001	-5,10780E-005	0,00000E+000	3,81004E-001	0,00000E+000	8	...........	-32768,00
	1122	16,0402	3,77864E-001	-5,20635E-005	0,00000E+000	3,78003E-001	0,00000E+000	8	...........	-32768,00
	1125	16,083	3,74861E-001	-5,27717E-005	0,00000E+000	3,75003E-001	0,00000E+000	8	...........	-32768,00
	1128	16,1259	3,71858E-001	-5,32361E-005	0,00000E+000	3,72003E-001	0,00000E+000	8	...........	-32768,00
	1131	16,1687	3,68855E-001	-5,34432E-005	0,00000E+000	3,69003E-001	0,00000E+000	8	...........	-32768,00
	1134	16,2116	3,65852E-001	-5,34365E-005	0,00000E+000	3,66003E-001	0,00000E+000	8	...........	-32768,00
	1137	16,2544	3,62850E-001	-5,32561E-005	0,00000E+000	3,63002E-001	0,00000E+000	8	...........	-32768,00
	1140	16,2973	3,59947E-001	-5,28886E-005	0,00000E+000	3,60002E-001	0,00000E+000	8	...........	-32768,00
	1143	16,3401	3,56744E-001	-5,23942E-005	0,00000E+000	3,57002E-001	0,00000E+000	8	...........	-32768,00
	1146	16,383	3,53841E-001	-5,17728E-005	0,00000E+000	3,54002E-001	0,00000E+000	8	...........	-32768,00
	1149	16,4258	3,50838E-001	-5,10813E-005	0,00000E+000	3,51001E-001	0,00000E+000	8	...........	-32768,00
	1152	16,4687	3,47735E-001	-5,02829E-005	0,00000E+000	3,48001E-001	0,00000E+000	8	...........	-32768,00
	1155	16,5115	3,44832E-001	-4,94711E-005	0,00000E+000	3,45001E-001	0,00000E+000	8	...........	-32768,00
	1158	16,5544	3,41829E-001	-4,85958E-005	0,00000E+000	3,42001E-001	0,00000E+000	8	...........	-32768,00
	1161	16,5972	3,38826E-001	-4,77172E-005	0,00000E+000	3,39000E-001	0,00000E+000	8	...........	-32768,00
	1164	16,6401	3,35723E-001	-4,68118E-005	0,00000E+000	3,36000E-001	0,00000E+000	8	...........	-32768,00
	1167	16,6829	3,32721E-001	-4,59031E-005	0,00000E+000	3,33000E-001	0,00000E+000	8	...........	-32768,00
	1170	16,7258	3,29918E-001	-4,50179E-005	0,00000E+000	3,30000E-001	0,00000E+000	8	...........	-32768,00
	1173	16,7686	3,26815E-001	-4,40991E-005	0,00000E+000	3,26999E-001	0,00000E+000	8	...........	-32768,00
	1176	16,8115	3,23812E-001	-4,32172E-005	0,00000E+000	3,23999E-001	0,00000E+000	8	...........	-32768,00
	1179	16,8543	3,20809E-001	-4,23553E-005	0,00000E+000	3,20999E-001	0,00000E+000	8	...........	-32768,00
	1182	16,8972	3,17806E-001	-4,14867E-005	0,00000E+000	3,17999E-001	0,00000E+000	8	...........	-32768,00
	1185	16,94	3,14703E-001	-4,06582E-005	0,00000E+000	3,14998E-001	0,00000E+000	8	...........	-32768,00
	1188	16,9829	3,11801E-001	-3,98163E-005	0,00000E+000	3,11998E-001	0,00000E+000	8	...........	-32768,00
	1191	17,0257	3,08798E-001	-3,90313E-005	0,00000E+000	3,08998E-001	0,00000E+000	8	...........	-32768,00
	1194	17,0686	3,05795E-001	-3,82395E-005	0,00000E+000	3,05998E-001	0,00000E+000	8	...........	-32768,00
	1197	17,1114	3,02792E-001	-3,74845E-005	0,00000E+000	3,02997E-001	0,00000E+000	8	...........	-32768,00
	1200	17,1543	2,99789E-001	-3,67328E-005	0,00000E+000	2,99997E-001	0,00000E+000	8	...........	-32768,00
	1203	17,1971	2,96786E-001	-3,59979E-005	0,00000E+000	2,96997E-001	0,00000E+000	8	...........	-32768,00
	1206	17,24	2,93783E-001	-3,53097E-005	0,00000E+000	2,93997E-001	0,00000E+000	8	...........	-32768,00
	1209	17,2828	2,90780E-001	-3,46081E-005	0,00000E+000	2,90996E-001	0,00000E+000	8	...........	-32768,00
	1212	17,3257	2,87878E-001	-3,39667E-005	0,00000E+000	2,87996E-001	0,00000E+000	8	...........	-32768,00
	1215	17,3685	2,84775E-001	-3,33153E-005	0,00000E+000	2,84996E-001	0,00000E+000	8	...........	-32768,00
	1218	17,4114	2,81872E-001	-3,26905E-005	0,00000E+000	2,81996E-001	0,00000E+000	8	...........	-32768,00
	1221	17,4542	2,78769E-001	-3,20925E-005	0,00000E+000	2,78996E-001	0,00000E+000	8	...........	-32768,00
	1224	17,4971	2,75766E-001	-3,15213E-005	0,00000E+000	2,75995E-001	0,00000E+000	8	...........	-32768,00
	1227	17,5399	2,72863E-001	-3,09500E-005	0,00000E+000	2,72995E-001	0,00000E+000	8	...........	-32768,00
	1230	17,5828	2,69860E-001	-3,03988E-005	0,00000E+000	2,69995E-001	0,00000E+000	8	...........	-32768,00
	1233	17,6256	2,66757E-001	-2,98843E-005	0,00000E+000	2,66995E-001	0,00000E+000	8	...........	-32768,00
	1236	17,6685	2,63754E-001	-2,93698E-005	0,00000E+000	2,63994E-001	0,00000E+000	8	...........	-32768,00
	1239	17,7113	2,60852E-001	-2,88821E-005	0,00000E+000	2,60994E-001	0,00000E+000	8	...........	-32768,00
	1242	17,7542	2,57949E-001	-2,84077E-005	0,00000E+000	2,57994E-001	0,00000E+000	8	...........	-32768,00
	1245	17,797	2,54846E-001	-2,79701E-005	0,00000E+000	2,54994E-001	0,00000E+000	8	...........	-32768,00
	1248	17,8399	2,51743E-001	-2,75191E-005	0,00000E+000	2,52006E-001	0,00000E+000	8	...........	-32768,00
	1251	17,8827	2,48940E-001	-2,71082E-005	0,00000E+000	2,49006E-001	0,00000E+000	8	...........	-32768,00
	1254	17,9256	2,45737E-001	-2,66906E-005	0,00000E+000	2,46005E-001	0,00000E+000	8	...........	-32768,00
	1257	17,9684	2,42934E-001	-2,62930E-005	0,00000E+000	2,43005E-001	0,00000E+000	8	...........	-32768,00
	1260	18,0113	2,39731E-001	-2,58988E-005	0,00000E+000	2,40005E-001	0,00000E+000	8	...........	-32768,00
	1263	18,0541	2,36828E-001	-2,55347E-005	0,00000E+000	2,37005E-001	0,00000E+000	8	...........	-32768,00
	1266	18,097	2,33826E-001	-2,51839E-005	0,00000E+000	2,34004E-001	0,00000E+000	8	...........	-32768,00
	1269	18,1398	2,30823E-001	-2,48498E-005	0,00000E+000	2,31004E-001	0,00000E+000	8	...........	-32768,00
	1272	18,1827	2,27820E-001	-2,45057E-005	0,00000E+000	2,28004E-001	0,00000E+000	8	...........	-32768,00
	1275	18,2255	2,24817E-001	-2,41984E-005	0,00000E+000	2,25004E-001	0,00000E+000	8	...........	-32768,00
	1278	18,2684	2,21814E-001	-2,39111E-005	0,00000E+000	2,22003E-001	0,00000E+000	8	...........	-32768,00
	1281	18,3112	2,18811E-001	-2,36004E-005	0,00000E+000	2,19003E-001	0,00000E+000	8	...........	-32768,00
	1284	18,3541	2,15708E-001	-2,33097E-005	0,00000E+000	2,16003E-001	0,00000E+000	8	...........	-32768,00
	1287	18,3969	2,12906E-001	-2,30158E-005	0,00000E+000	2,13003E-001	0,00000E+000	8	...........	-32768,00
	1290	18,4398	2,09803E-001	-2,27585E-005	0,00000E+000	2,10003E-001	0,00000E+000	8	...........	-32768,00
	1293	18,4826	2,06800E-001	-2,24846E-005	0,00000E+000	2,07002E-001	0,00000E+000	8	...........	-32768,00
	1296	18,5255	2,03897E-001	-2,22407E-005	0,00000E+000	2,04002E-001	0,00000E+000	8	...........	-32768,00
	1299	18,5683	2,00794E-001	-2,19701E-005	0,00000E+000	2,01002E-001	0,00000E+000	8	...........	-32768,00
	1302	18,6112	1,97791E-001	-2,17396E-005	0,00000E+000	1,98002E-001	0,00000E+000	8	...........	-32768,00
	1305	18,654	1,94788E-001	-2,15058E-005	0,00000E+000	1,95001E-001	0,00000E+000	8	...........	-32768,00
	1308	18,6969	1,91785E-001	-2,12853E-005	0,00000E+000	1,92001E-001	0,00000E+000	8	...........	-32768,00
	1311	18,7397	1,88682E-001	-2,10548E-005	0,00000E+000	1,89001E-001	0,00000E+000	8	...........	-32768,00
	1314	18,7826	1,85779E-001	-2,08610E-005	0,00000E+000	1,86001E-001	0,00000E+000	8	...........	-32768,00
	1317	18,8254	1,82877E-001	-2,06505E-005	0,00000E+000	1,83000E-001	0,00000E+000	8	...........	-32768,00
	1320	18,8683	1,79874E-001	-2,04568E-005	0,00000E+000	1,80000E-001	0,00000E+000	8	...........	-32768,00
	1323	18,9111	1,76771E-001	-2,02663E-005	0,00000E+000	1,77000E-001	0,00000E+000	8	...........	-32768,00
	1326	18,954	1,73868E-001	-2,00826E-005	0,00000E+000	1,74000E-001	0,00000E+000	8	...........	-32768,00
	1329	18,9968	1,70865E-001	-1,98989E-005	0,00000E+000	1,70999E-001	0,00000E+000	8	...........	-32768,00
	1332	19,0397	1,67762E-001	-1,97218E-005	0,00000E+000	1,67999E-001	0,00000E+000	8	...........	-32768,00
	1335	19,0825	1,64859E-001	-1,95581E-005	0,00000E+000	1,64999E-001	0,00000E+000	8	...........	-32768,00
	1338	19,1254	1,61756E-001	-1,93944E-005	0,00000E+000	1,61999E-001	0,00000E+000	8	...........	-32768,00
	1341	19,1682	1,58854E-001	-1,92307E-005	0,00000E+000	1,58998E-001	0,00000E+000	8	...........	-32768,00
	1344	19,2111	1,55751E-001	-1,90871E-005	0,00000E+000	1,55998E-001	0,00000E+000	8	...........	-32768,00
	1347	19,2539	1,52848E-001	-1,89334E-005	0,00000E+000	1,52998E-001	0,00000E+000	8	...........	-32768,00
	1350	19,2968	1,49845E-001	-1,87998E-005	0,00000E+000	1,49998E-001	0,00000E+000	8	...........	-32768,00
	1353	19,3396	1,46842E-001	-1,86427E-005	0,00000E+000	1,46997E-001	0,00000E+000	8	...........	-32768,00
	1356	19,3825	1,43739E-001	-1,85125E-005	0,00000E+000	1,43997E-001	0,00000E+000	8	...........	-32768,00
	1359	19,4253	1,40736E-001	-1,83955E-005	0,00000E+000	1,40997E-001	0,00000E+000	8	...........	-32768,00
	1362	19,4682	1,37633E-001	-1,82753E-005	0,00000E+000	1,37997E-001	0,00000E+000	8	...........	-32768,00
	1365	19,511	1,34730E-001	-1,81517E-005	0,00000E+000	1,34997E-001	0,00000E+000	8	...........	-32768,00
	1368	19,5539	1,31828E-001	-1,80214E-005	0,00000E+000	1,31996E-001	0,00000E+000	8	...........	-32768,00
	1371	19,5967	1,28825E-001	-1,79145E-005	0,00000E+000	1,28996E-001	0,00000E+000	8	...........	-32768,00
	1374	19,6396	1,25822E-001	-1,78009E-005	0,00000E+000	1,25996E-001	0,00000E+000	8	...........	-32768,00
	1377	19,6824	1,22719E-001	-1,76873E-005	0,00000E+000	1,22996E-001	0,00000E+000	8	...........	-32768,00
	1380	19,7253	1,19816E-001	-1,76004E-005	0,00000E+000	1,19995E-001	0,00000E+000	8	...........	-32768,00
	1383	19,7681	1,16813E-001	-1,74902E-005	0,00000E+000	1,16995E-001	0,00000E+000	8	...........	-32768,00
	1386	19,811	1,13710E-001	-1,73866E-005	0,00000E+000	1,13995E-001	0,00000E+000	8	...........	-32768,00
	1389	19,8538	1,10807E-001	-1,73031E-005	0,00000E+000	1,10995E-001	0,00000E+000	8	...........	-32768,00
	1392	19,8967	1,07805E-001	-1,72162E-005	0,00000E+000	1,07994E-001	0,00000E+000	8	...........	-32768,00
	1395	19,9395	1,04802E-001	-1,71260E-005	0,00000E+000	1,04994E-001	0,00000E+000	8	...........	-32768,00
	1398	19,9824	1,01799E-001	-1,70392E-005	0,00000E+000	1,01994E-001	0,00000E+000	8	...........	-32768,00
	1400	20,011	9,97968E-002	-1,69924E-005	0,00000E+000	1,00006E-001	0,00000E+000	8	...........	-32768,00