File: HOPG_cv/1mM/AgNO3_HOPG_1mM_3_50mv_cv.DTA
EXPLAIN
TAG	CV
TITLE	LABEL	Cyclic Voltammetry	Test &Identifier
DATE	LABEL	7/4/2022	Date
TIME	LABEL	19:12:51	Time
NOTES	NOTES	2	&Notes...
	07/04/22 , 1mM  AgNO3

PSTAT	PSTAT	IFC1000-09004	Potentiostat
VINIT	POTEN	1,00000E-001	F	Initial &E (V)
VLIMIT1	POTEN	1,00000E-001	F	Scan Limit &1 (V)
VLIMIT2	POTEN	8,00000E-001	F	Scan Limit &2 (V)
VFINAL	POTEN	1,00000E-001	F	Final &E (V)
SCANRATE	QUANT	4,99999E+001	&Scan Rate (mV/s)
STEPSIZE	QUANT	1,00000E+000	St&ep Size (mV)
CYCLES	IQUANT	1	C&ycles (#)
IMODE	SELECTOR	0	I/E Range &Mode
IRANGE	QUANT	1,00000E-005	&Max Current (mA)
AREA	QUANT	1,00000E+000	Electrode &Area (cm^2)
ELECTRODETYPE	SELECTOR	0	Electrode Type
STRIPPING	TOGGLE	F	Used for Stripping
POLARITY	TOGGLE	F	Signal Polarity
CONDIT	TWOPARAM	F	1,50000E+001	0,00000E+000	Conditionin&g	Time(s)	E(V)
DELAY	TWOPARAM	F	3,00000E+001	0,00000E+000	Init. De&lay	Time(s)	Stab.(mV/s)
EQDELAY	QUANT	1,00000E+001	Equil. &Time (s)
IRCOMP	SELECTOR	0	IRCom&p
PFCOR	QUANT	5,00000E+001	PF Corr. (ohm)
SAMPLINGMODE	SELECTOR	0	Sampling &Mode
EOC	QUANT	0	Open Circuit (V)
PSTATMODEL	IQUANT	48	Pstat Model
PSTATSECTION	LABEL	IFC1000-09004	Pstat Section
PSTATSERIALNO	LABEL	09004	Pstat Serial Number
CTRLMODE	IQUANT	1	Control Mode
ELECTROMETER	IQUANT	0	RE=0 or CS=1
IESTAB	IQUANT	2	I/E Stability
CASPEED	IQUANT	4	Control Amp Speed
CONVENTION	IQUANT	1	Current Convention
ICHRANGE	IQUANT	2	Ich Range
ICHRANGEMODE	TOGGLE	F	Ich Auto Range
ICHOFFSETENABLE	TOGGLE	F	Ich Offset Enable
ICHOFFSET	QUANT	0	Ich Offset (V)
ICHFILTER	IQUANT	3	Ich Filter
VCHRANGE	IQUANT	2	Vch Range
VCHRANGEMODE	TOGGLE	F	Vch Auto Range
VCHOFFSETENABLE	TOGGLE	F	Vch Offset Enable
VCHOFFSET	QUANT	0	Vch Offset (V)
VCHFILTER	IQUANT	3	Vch Filter
IERANGELOWERLIMIT	IQUANT	4	I/E Range Lower Limit
IERANGEMODE	TOGGLE	T	I/E AutoRange
IERANGE	IQUANT	5	I/E Range
ACHSELECT	IQUANT	0	Ach Select
ACHRANGE	IQUANT	2	Ach Range
ACHOFFSETENABLE	TOGGLE	F	Ach Offset Enable
ACHOFFSET	QUANT	0	Ach Offset (V)
ACHFILTER	IQUANT	1	Ach Filter
CABLEID	IQUANT	14	Cable ID
DCCALDATE	LABEL	3/18/2022	DC Calibration Date
ACCALDATE	LABEL	3/10/2016	AC Calibration Date
FRAMEWORKVERSION	QUANT	7,05	Framework Version
INSTRUMENTVERSION	LABEL	4.21	Instrument Version
CURVE1	TABLE
	Pt	T	Vf	Im	Vu	Sig	Ach	IERange	Over	Temp
	#	s	V vs. Ref.	A	V	V	V	#	bits	deg C
	0	0,02	9,97968E-002	-6,04036E-006	0,00000E+000	1,00006E-001	0,00000E+000	7	...........	-32768,00
	3	0,08	1,02700E-001	-5,87228E-006	0,00000E+000	1,02994E-001	0,00000E+000	7	...........	-32768,00
	6	0,14	1,05803E-001	-5,77037E-006	0,00000E+000	1,05994E-001	0,00000E+000	7	...........	-32768,00
	9	0,2	1,08805E-001	-5,67714E-006	0,00000E+000	1,08994E-001	0,00000E+000	7	...........	-32768,00
	12	0,26	1,11708E-001	-5,60295E-006	0,00000E+000	1,11995E-001	0,00000E+000	7	...........	-32768,00
	15	0,32	1,14811E-001	-5,53679E-006	0,00000E+000	1,14995E-001	0,00000E+000	7	...........	-32768,00
	18	0,38	1,17814E-001	-5,45860E-006	0,00000E+000	1,17995E-001	0,00000E+000	7	...........	-32768,00
	21	0,44	1,20917E-001	-5,42151E-006	0,00000E+000	1,20995E-001	0,00000E+000	7	...........	-32768,00
	24	0,5	1,23920E-001	-5,34331E-006	0,00000E+000	1,23996E-001	0,00000E+000	7	...........	-32768,00
	27	0,56	1,26823E-001	-5,29486E-006	0,00000E+000	1,26996E-001	0,00000E+000	7	...........	-32768,00
	30	0,62	1,29726E-001	-5,25209E-006	0,00000E+000	1,29996E-001	0,00000E+000	7	...........	-32768,00
	33	0,68	1,32829E-001	-5,19963E-006	0,00000E+000	1,32996E-001	0,00000E+000	7	...........	-32768,00
	36	0,74	1,35831E-001	-5,15685E-006	0,00000E+000	1,35997E-001	0,00000E+000	7	...........	-32768,00
	39	0,8	1,38734E-001	-5,10406E-006	0,00000E+000	1,38997E-001	0,00000E+000	7	...........	-32768,00
	42	0,86	1,41837E-001	-5,06128E-006	0,00000E+000	1,41997E-001	0,00000E+000	7	...........	-32768,00
	45	0,92	1,44840E-001	-5,02586E-006	0,00000E+000	1,44997E-001	0,00000E+000	7	...........	-32768,00
	48	0,98	1,47843E-001	-4,97774E-006	0,00000E+000	1,47998E-001	0,00000E+000	7	...........	-32768,00
	51	1,04	1,50746E-001	-4,95636E-006	0,00000E+000	1,50998E-001	0,00000E+000	7	...........	-32768,00
	54	1,1	1,53749E-001	-4,90557E-006	0,00000E+000	1,53998E-001	0,00000E+000	7	...........	-32768,00
	57	1,16	1,56752E-001	-4,87750E-006	0,00000E+000	1,56998E-001	0,00000E+000	7	...........	-32768,00
	60	1,22	1,59855E-001	-4,84442E-006	0,00000E+000	1,59999E-001	0,00000E+000	7	...........	-32768,00
	63	1,28	1,62757E-001	-4,81334E-006	0,00000E+000	1,62999E-001	0,00000E+000	7	...........	-32768,00
	66	1,34	1,65760E-001	-4,77023E-006	0,00000E+000	1,65999E-001	0,00000E+000	7	...........	-32768,00
	69	1,4	1,68763E-001	-4,75018E-006	0,00000E+000	1,68999E-001	0,00000E+000	7	...........	-32768,00
	72	1,46	1,71766E-001	-4,71176E-006	0,00000E+000	1,71999E-001	0,00000E+000	7	...........	-32768,00
	75	1,52	1,74869E-001	-4,67433E-006	0,00000E+000	1,75000E-001	0,00000E+000	7	...........	-32768,00
	78	1,58	1,77772E-001	-4,65528E-006	0,00000E+000	1,78000E-001	0,00000E+000	7	...........	-32768,00
	81	1,64	1,80875E-001	-4,64526E-006	0,00000E+000	1,81000E-001	0,00000E+000	7	...........	-32768,00
	84	1,7	1,83778E-001	-4,61351E-006	0,00000E+000	1,84000E-001	0,00000E+000	7	...........	-32768,00
	87	1,76	1,86780E-001	-4,59113E-006	0,00000E+000	1,87001E-001	0,00000E+000	7	...........	-32768,00
	90	1,82	1,89783E-001	-4,56907E-006	0,00000E+000	1,90001E-001	0,00000E+000	7	...........	-32768,00
	93	1,88	1,92786E-001	-4,54368E-006	0,00000E+000	1,93001E-001	0,00000E+000	7	...........	-32768,00
	96	1,94	1,95889E-001	-4,53900E-006	0,00000E+000	1,96001E-001	0,00000E+000	7	...........	-32768,00
	99	2	1,98792E-001	-4,51059E-006	0,00000E+000	1,99002E-001	0,00000E+000	7	...........	-32768,00
	102	2,06	2,01695E-001	-4,48152E-006	0,00000E+000	2,02002E-001	0,00000E+000	7	...........	-32768,00
	105	2,12	2,04798E-001	-4,46715E-006	0,00000E+000	2,05002E-001	0,00000E+000	7	...........	-32768,00
	108	2,18	2,07801E-001	-4,44076E-006	0,00000E+000	2,08002E-001	0,00000E+000	7	...........	-32768,00
	111	2,24	2,10803E-001	-4,42438E-006	0,00000E+000	2,11003E-001	0,00000E+000	7	...........	-32768,00
	114	2,3	2,13806E-001	-4,40901E-006	0,00000E+000	2,14003E-001	0,00000E+000	7	...........	-32768,00
	117	2,36	2,16809E-001	-4,39297E-006	0,00000E+000	2,17003E-001	0,00000E+000	7	...........	-32768,00
	120	2,42	2,19812E-001	-4,36390E-006	0,00000E+000	2,20003E-001	0,00000E+000	7	...........	-32768,00
	123	2,48	2,22815E-001	-4,35454E-006	0,00000E+000	2,23004E-001	0,00000E+000	7	...........	-32768,00
	126	2,54	2,25818E-001	-4,33583E-006	0,00000E+000	2,26004E-001	0,00000E+000	7	...........	-32768,00
	129	2,6	2,28821E-001	-4,32681E-006	0,00000E+000	2,29004E-001	0,00000E+000	7	...........	-32768,00
	132	2,66	2,31824E-001	-4,28905E-006	0,00000E+000	2,32004E-001	0,00000E+000	7	...........	-32768,00
	135	2,72	2,34827E-001	-4,27702E-006	0,00000E+000	2,35005E-001	0,00000E+000	7	...........	-32768,00
	138	2,78	2,37729E-001	-4,25663E-006	0,00000E+000	2,38005E-001	0,00000E+000	7	...........	-32768,00
	141	2,84	2,40732E-001	-4,23926E-006	0,00000E+000	2,41005E-001	0,00000E+000	7	...........	-32768,00
	144	2,9	2,43835E-001	-4,22489E-006	0,00000E+000	2,44005E-001	0,00000E+000	7	...........	-32768,00
	147	2,96	2,46938E-001	-4,21085E-006	0,00000E+000	2,47005E-001	0,00000E+000	7	...........	-32768,00
	150	3,02	2,49741E-001	-4,17009E-006	0,00000E+000	2,50006E-001	0,00000E+000	7	...........	-32768,00
	153	3,08	2,52844E-001	-4,16641E-006	0,00000E+000	2,53006E-001	0,00000E+000	7	...........	-32768,00
	156	3,14	2,55847E-001	-4,16073E-006	0,00000E+000	2,56006E-001	0,00000E+000	7	...........	-32768,00
	159	3,2	2,58850E-001	-4,12732E-006	0,00000E+000	2,58994E-001	0,00000E+000	7	...........	-32768,00
	162	3,26	2,61853E-001	-4,10660E-006	0,00000E+000	2,61994E-001	0,00000E+000	7	...........	-32768,00
	165	3,32	2,64855E-001	-4,07719E-006	0,00000E+000	2,64994E-001	0,00000E+000	7	...........	-32768,00
	168	3,38	2,67858E-001	-4,06817E-006	0,00000E+000	2,67995E-001	0,00000E+000	7	...........	-32768,00
	171	3,44	2,70761E-001	-4,05079E-006	0,00000E+000	2,70995E-001	0,00000E+000	7	...........	-32768,00
	174	3,5	2,73764E-001	-4,01704E-006	0,00000E+000	2,73995E-001	0,00000E+000	7	...........	-32768,00
	177	3,56	2,76767E-001	-3,99633E-006	0,00000E+000	2,76995E-001	0,00000E+000	7	...........	-32768,00
	180	3,62	2,79770E-001	-3,97962E-006	0,00000E+000	2,79996E-001	0,00000E+000	7	...........	-32768,00
	183	3,68	2,82873E-001	-3,96993E-006	0,00000E+000	2,82996E-001	0,00000E+000	7	...........	-32768,00
	186	3,74	2,85876E-001	-3,93718E-006	0,00000E+000	2,85996E-001	0,00000E+000	7	...........	-32768,00
	189	3,8	2,88778E-001	-3,90276E-006	0,00000E+000	2,88996E-001	0,00000E+000	7	...........	-32768,00
	192	3,86	2,91781E-001	-3,88138E-006	0,00000E+000	2,91997E-001	0,00000E+000	7	...........	-32768,00
	195	3,92	2,94784E-001	-3,86133E-006	0,00000E+000	2,94997E-001	0,00000E+000	7	...........	-32768,00
	198	3,98	2,97887E-001	-3,83994E-006	0,00000E+000	2,97997E-001	0,00000E+000	7	...........	-32768,00
	201	4,04	3,00890E-001	-3,79683E-006	0,00000E+000	3,00997E-001	0,00000E+000	7	...........	-32768,00
	204	4,1	3,03893E-001	-3,76175E-006	0,00000E+000	3,03998E-001	0,00000E+000	7	...........	-32768,00
	207	4,16	3,06796E-001	-3,72065E-006	0,00000E+000	3,06998E-001	0,00000E+000	7	...........	-32768,00
	210	4,22	3,09799E-001	-3,68857E-006	0,00000E+000	3,09998E-001	0,00000E+000	7	...........	-32768,00
	213	4,28	3,12801E-001	-3,65950E-006	0,00000E+000	3,12998E-001	0,00000E+000	7	...........	-32768,00
	216	4,34	3,15804E-001	-3,62441E-006	0,00000E+000	3,15998E-001	0,00000E+000	7	...........	-32768,00
	219	4,4	3,18807E-001	-3,55724E-006	0,00000E+000	3,18999E-001	0,00000E+000	7	...........	-32768,00
	222	4,46	3,21910E-001	-3,52316E-006	0,00000E+000	3,21999E-001	0,00000E+000	7	...........	-32768,00
	225	4,52	3,24913E-001	-3,46368E-006	0,00000E+000	3,24999E-001	0,00000E+000	7	...........	-32768,00
	228	4,58	3,27716E-001	-3,42258E-006	0,00000E+000	3,27999E-001	0,00000E+000	7	...........	-32768,00
	231	4,64	3,30819E-001	-3,36410E-006	0,00000E+000	3,31000E-001	0,00000E+000	7	...........	-32768,00
	234	4,7	3,33822E-001	-3,29192E-006	0,00000E+000	3,34000E-001	0,00000E+000	7	...........	-32768,00
	237	4,76	3,36825E-001	-3,23612E-006	0,00000E+000	3,37000E-001	0,00000E+000	7	...........	-32768,00
	240	4,82	3,39827E-001	-3,16695E-006	0,00000E+000	3,40000E-001	0,00000E+000	7	...........	-32768,00
	243	4,88	3,42830E-001	-3,08642E-006	0,00000E+000	3,43001E-001	0,00000E+000	7	...........	-32768,00
	246	4,94	3,45833E-001	-2,99887E-006	0,00000E+000	3,46001E-001	0,00000E+000	7	...........	-32768,00
	249	5	3,48736E-001	-2,90263E-006	0,00000E+000	3,49001E-001	0,00000E+000	7	...........	-32768,00
	252	5,06	3,51939E-001	-2,83112E-006	0,00000E+000	3,52001E-001	0,00000E+000	7	...........	-32768,00
	255	5,12	3,54842E-001	-2,71450E-006	0,00000E+000	3,55002E-001	0,00000E+000	7	...........	-32768,00
	258	5,18	3,57745E-001	-2,61158E-006	0,00000E+000	3,58002E-001	0,00000E+000	7	...........	-32768,00
	261	5,24	3,60748E-001	-2,49563E-006	0,00000E+000	3,61002E-001	0,00000E+000	7	...........	-32768,00
	264	5,3	3,63851E-001	-2,37099E-006	0,00000E+000	3,64002E-001	0,00000E+000	7	...........	-32768,00
	267	5,36	3,66853E-001	-2,25971E-006	0,00000E+000	3,67003E-001	0,00000E+000	7	...........	-32768,00
	270	5,42	3,69856E-001	-2,09999E-006	0,00000E+000	3,70003E-001	0,00000E+000	7	...........	-32768,00
	273	5,48	3,72859E-001	-1,95797E-006	0,00000E+000	3,73003E-001	0,00000E+000	7	...........	-32768,00
	276	5,54	3,75862E-001	-1,80827E-006	0,00000E+000	3,76003E-001	0,00000E+000	7	...........	-32768,00
	279	5,6	3,78865E-001	-1,64921E-006	0,00000E+000	3,79004E-001	0,00000E+000	7	...........	-32768,00
	282	5,66	3,81868E-001	-1,48547E-006	0,00000E+000	3,82004E-001	0,00000E+000	7	...........	-32768,00
	285	5,72	3,84871E-001	-1,30202E-006	0,00000E+000	3,85004E-001	0,00000E+000	7	...........	-32768,00
	288	5,78	3,87874E-001	-1,12558E-006	0,00000E+000	3,88004E-001	0,00000E+000	7	...........	-32768,00
	291	5,84	3,90877E-001	-9,39125E-007	0,00000E+000	3,91005E-001	0,00000E+000	7	...........	-32768,00
	294	5,9	3,93879E-001	-7,49657E-007	0,00000E+000	3,94005E-001	0,00000E+000	7	...........	-32768,00
	297	5,96	3,96782E-001	-5,67208E-007	0,00000E+000	3,97005E-001	0,00000E+000	7	...........	-32768,00
	300	6,02	3,99885E-001	-3,54016E-007	0,00000E+000	4,00005E-001	0,00000E+000	7	...........	-32768,00
	303	6,08	4,02888E-001	-1,71232E-007	0,00000E+000	4,03005E-001	0,00000E+000	7	...........	-32768,00
	306	6,14	4,05791E-001	2,62549E-008	0,00000E+000	4,06006E-001	0,00000E+000	7	...........	-32768,00
	309	6,2	4,08894E-001	2,41786E-007	0,00000E+000	4,09006E-001	0,00000E+000	7	...........	-32768,00
	312	6,26	4,11797E-001	4,25573E-007	0,00000E+000	4,12006E-001	0,00000E+000	7	...........	-32768,00
	315	6,32	4,14799E-001	6,29408E-007	0,00000E+000	4,14994E-001	0,00000E+000	7	...........	-32768,00
	318	6,38	4,17802E-001	8,31573E-007	0,00000E+000	4,17994E-001	0,00000E+000	7	...........	-32768,00
	321	6,44	4,20805E-001	1,03073E-006	0,00000E+000	4,20994E-001	0,00000E+000	7	...........	-32768,00
	324	6,5	4,23808E-001	1,24259E-006	0,00000E+000	4,23995E-001	0,00000E+000	7	...........	-32768,00
	327	6,56	4,26811E-001	1,45578E-006	0,00000E+000	4,26995E-001	0,00000E+000	7	...........	-32768,00
	330	6,62	4,29814E-001	1,68501E-006	0,00000E+000	4,29995E-001	0,00000E+000	7	...........	-32768,00
	333	6,68	4,32817E-001	1,91725E-006	0,00000E+000	4,32995E-001	0,00000E+000	7	...........	-32768,00
	336	6,74	4,35820E-001	2,15951E-006	0,00000E+000	4,35996E-001	0,00000E+000	7	...........	-32768,00
	339	6,8	4,38823E-001	2,43118E-006	0,00000E+000	4,38996E-001	0,00000E+000	7	...........	-32768,00
	342	6,86	4,41825E-001	2,71689E-006	0,00000E+000	4,41996E-001	0,00000E+000	7	...........	-32768,00
	345	6,92	4,44828E-001	3,04269E-006	0,00000E+000	4,44996E-001	0,00000E+000	7	...........	-32768,00
	348	6,98	4,47931E-001	3,38086E-006	0,00000E+000	4,47997E-001	0,00000E+000	7	...........	-32768,00
	351	7,04	4,50834E-001	3,73840E-006	0,00000E+000	4,50997E-001	0,00000E+000	7	...........	-32768,00
	354	7,1	4,53837E-001	4,13639E-006	0,00000E+000	4,53997E-001	0,00000E+000	7	...........	-32768,00
	357	7,16	4,56840E-001	4,56578E-006	0,00000E+000	4,56997E-001	0,00000E+000	7	...........	-32768,00
	360	7,22	4,59843E-001	5,04730E-006	0,00000E+000	4,59998E-001	0,00000E+000	7	...........	-32768,00
	363	7,28	4,62846E-001	5,56691E-006	0,00000E+000	4,62998E-001	0,00000E+000	7	...........	-32768,00
	366	7,34	4,65849E-001	6,14968E-006	0,00000E+000	4,65998E-001	0,00000E+000	7	...........	-32768,00
	369	7,4	4,68851E-001	6,76186E-006	0,00000E+000	4,68998E-001	0,00000E+000	7	...........	-32768,00
	372	7,46	4,71854E-001	7,42215E-006	0,00000E+000	4,71999E-001	0,00000E+000	7	...........	-32768,00
	375	7,52	4,74857E-001	8,14861E-006	0,00000E+000	4,74999E-001	0,00000E+000	7	...........	-32768,00
	378	7,58	4,77860E-001	8,94156E-006	0,00000E+000	4,77999E-001	0,00000E+000	7	...........	-32768,00
	381	7,64	4,80863E-001	9,77690E-006	0,00000E+000	4,80999E-001	0,00000E+000	8	...........	-32768,00
	384	7,7	4,83866E-001	1,06923E-005	0,00000E+000	4,83999E-001	0,00000E+000	8	...........	-32768,00
	387	7,76	4,86869E-001	1,16678E-005	0,00000E+000	4,87000E-001	0,00000E+000	8	...........	-32768,00
	390	7,82	4,89872E-001	1,27134E-005	0,00000E+000	4,90000E-001	0,00000E+000	8	...........	-32768,00
	393	7,88	4,92874E-001	1,38292E-005	0,00000E+000	4,93000E-001	0,00000E+000	8	...........	-32768,00
	396	7,94	4,95877E-001	1,50085E-005	0,00000E+000	4,96000E-001	0,00000E+000	8	...........	-32768,00
	399	8	4,98880E-001	1,62713E-005	0,00000E+000	4,99001E-001	0,00000E+000	8	...........	-32768,00
	402	8,06	5,01783E-001	1,76042E-005	0,00000E+000	5,02001E-001	0,00000E+000	8	...........	-32768,00
	405	8,12	5,04886E-001	1,90040E-005	0,00000E+000	5,05001E-001	0,00000E+000	8	...........	-32768,00
	408	8,18	5,07789E-001	2,04873E-005	0,00000E+000	5,08001E-001	0,00000E+000	8	...........	-32768,00
	411	8,24	5,10792E-001	2,20641E-005	0,00000E+000	5,11002E-001	0,00000E+000	8	...........	-32768,00
	414	8,3	5,13795E-001	2,37278E-005	0,00000E+000	5,14002E-001	0,00000E+000	8	...........	-32768,00
	417	8,36	5,16898E-001	2,54984E-005	0,00000E+000	5,17002E-001	0,00000E+000	8	...........	-32768,00
	420	8,42	5,19901E-001	2,73659E-005	0,00000E+000	5,20002E-001	0,00000E+000	8	...........	-32768,00
	423	8,48	5,22903E-001	2,92901E-005	0,00000E+000	5,23003E-001	0,00000E+000	8	...........	-32768,00
	426	8,54	5,25806E-001	3,13581E-005	0,00000E+000	5,26003E-001	0,00000E+000	8	...........	-32768,00
	429	8,6	5,28809E-001	3,35061E-005	0,00000E+000	5,29003E-001	0,00000E+000	8	...........	-32768,00
	432	8,66	5,31812E-001	3,57578E-005	0,00000E+000	5,32003E-001	0,00000E+000	8	...........	-32768,00
	435	8,72	5,34815E-001	3,81297E-005	0,00000E+000	5,35004E-001	0,00000E+000	8	...........	-32768,00
	438	8,78	5,37918E-001	4,05952E-005	0,00000E+000	5,38004E-001	0,00000E+000	8	...........	-32768,00
	441	8,84	5,40921E-001	4,31876E-005	0,00000E+000	5,41004E-001	0,00000E+000	8	...........	-32768,00
	444	8,9	5,43823E-001	4,59170E-005	0,00000E+000	5,44004E-001	0,00000E+000	8	...........	-32768,00
	447	8,96	5,46926E-001	4,87299E-005	0,00000E+000	5,47005E-001	0,00000E+000	8	...........	-32768,00
	450	9,02	5,49929E-001	5,17599E-005	0,00000E+000	5,50005E-001	0,00000E+000	8	...........	-32768,00
	453	9,08	5,52832E-001	5,48134E-005	0,00000E+000	5,53005E-001	0,00000E+000	8	...........	-32768,00
	456	9,14	5,55835E-001	5,80472E-005	0,00000E+000	5,56005E-001	0,00000E+000	8	...........	-32768,00
	459	9,2	5,58838E-001	6,13946E-005	0,00000E+000	5,59005E-001	0,00000E+000	8	...........	-32768,00
	462	9,26	5,61841E-001	6,48489E-005	0,00000E+000	5,62006E-001	0,00000E+000	8	...........	-32768,00
	465	9,32	5,64944E-001	6,84603E-005	0,00000E+000	5,65006E-001	0,00000E+000	8	...........	-32768,00
	468	9,38	5,67847E-001	7,21551E-005	0,00000E+000	5,68006E-001	0,00000E+000	8	...........	-32768,00
	471	9,44	5,70849E-001	7,59368E-005	0,00000E+000	5,70994E-001	0,00000E+000	8	...........	-32768,00
	474	9,5	5,73852E-001	7,98154E-005	0,00000E+000	5,73994E-001	0,00000E+000	8	...........	-32768,00
	477	9,56	5,76755E-001	8,38444E-005	0,00000E+000	5,76994E-001	0,00000E+000	8	...........	-32768,00
	480	9,62	5,79858E-001	8,79735E-005	0,00000E+000	5,79995E-001	0,00000E+000	8	...........	-32768,00
	483	9,68	5,82861E-001	9,19824E-005	0,00000E+000	5,82995E-001	0,00000E+000	9	...........	-32768,00
	486	9,74	5,85864E-001	9,63552E-005	0,00000E+000	5,85995E-001	0,00000E+000	9	...........	-32768,00
	489	9,8	5,88867E-001	1,00661E-004	0,00000E+000	5,88995E-001	0,00000E+000	9	...........	-32768,00
	492	9,86	5,91870E-001	1,05101E-004	0,00000E+000	5,91996E-001	0,00000E+000	9	...........	-32768,00
	495	9,92	5,94872E-001	1,09641E-004	0,00000E+000	5,94996E-001	0,00000E+000	9	...........	-32768,00
	498	9,98	5,97875E-001	1,14247E-004	0,00000E+000	5,97996E-001	0,00000E+000	9	...........	-32768,00
	501	10,04	6,00878E-001	1,18754E-004	0,00000E+000	6,00996E-001	0,00000E+000	9	...........	-32768,00
	504	10,1	6,03881E-001	1,23393E-004	0,00000E+000	6,03997E-001	0,00000E+000	9	...........	-32768,00
	507	10,16	6,06784E-001	1,27833E-004	0,00000E+000	6,06997E-001	0,00000E+000	9	...........	-32768,00
	510	10,22	6,09787E-001	1,32239E-004	0,00000E+000	6,09997E-001	0,00000E+000	9	...........	-32768,00
	513	10,28	6,12890E-001	1,36412E-004	0,00000E+000	6,12997E-001	0,00000E+000	9	...........	-32768,00
	516	10,34	6,15893E-001	1,40251E-004	0,00000E+000	6,15998E-001	0,00000E+000	9	...........	-32768,00
	519	10,4	6,18896E-001	1,43789E-004	0,00000E+000	6,18998E-001	0,00000E+000	9	...........	-32768,00
	522	10,46	6,21798E-001	1,46860E-004	0,00000E+000	6,21998E-001	0,00000E+000	9	...........	-32768,00
	525	10,52	6,24901E-001	1,49397E-004	0,00000E+000	6,24998E-001	0,00000E+000	9	...........	-32768,00
	528	10,58	6,27904E-001	1,51433E-004	0,00000E+000	6,27999E-001	0,00000E+000	9	...........	-32768,00
	531	10,64	6,30907E-001	1,52735E-004	0,00000E+000	6,30999E-001	0,00000E+000	9	...........	-32768,00
	534	10,7	6,33910E-001	1,53436E-004	0,00000E+000	6,33999E-001	0,00000E+000	9	...........	-32768,00
	537	10,76	6,36913E-001	1,53302E-004	0,00000E+000	6,36999E-001	0,00000E+000	9	...........	-32768,00
	540	10,82	6,39916E-001	1,52101E-004	0,00000E+000	6,40000E-001	0,00000E+000	9	...........	-32768,00
	543	10,88	6,42919E-001	1,49998E-004	0,00000E+000	6,43000E-001	0,00000E+000	9	...........	-32768,00
	546	10,94	6,45922E-001	1,46893E-004	0,00000E+000	6,46000E-001	0,00000E+000	9	...........	-32768,00
	549	11	6,48924E-001	1,42754E-004	0,00000E+000	6,49000E-001	0,00000E+000	9	...........	-32768,00
	552	11,06	6,51927E-001	1,37714E-004	0,00000E+000	6,52000E-001	0,00000E+000	9	...........	-32768,00
	555	11,12	6,54930E-001	1,30937E-004	0,00000E+000	6,55001E-001	0,00000E+000	9	...........	-32768,00
	558	11,18	6,57933E-001	1,22125E-004	0,00000E+000	6,58001E-001	0,00000E+000	9	...........	-32768,00
	561	11,24	6,60836E-001	1,11243E-004	0,00000E+000	6,61001E-001	0,00000E+000	9	...........	-32768,00
	564	11,3	6,63839E-001	9,83247E-005	0,00000E+000	6,64001E-001	0,00000E+000	9	...........	-32768,00
	567	11,36	6,66842E-001	8,22019E-005	0,00000E+000	6,67002E-001	0,00000E+000	9	...........	-32768,00
	570	11,42	6,69845E-001	6,22866E-005	0,00000E+000	6,70002E-001	0,00000E+000	8	...........	-32768,00
	573	11,48	6,72947E-001	4,73468E-005	0,00000E+000	6,73002E-001	0,00000E+000	8	...........	-32768,00
	576	11,54	6,75850E-001	3,93591E-005	0,00000E+000	6,76002E-001	0,00000E+000	8	...........	-32768,00
	579	11,6	6,78853E-001	3,43413E-005	0,00000E+000	6,79003E-001	0,00000E+000	8	...........	-32768,00
	582	11,66	6,81956E-001	3,06832E-005	0,00000E+000	6,82003E-001	0,00000E+000	8	...........	-32768,00
	585	11,72	6,84859E-001	2,78971E-005	0,00000E+000	6,85003E-001	0,00000E+000	8	...........	-32768,00
	588	11,78	6,87962E-001	2,56387E-005	0,00000E+000	6,88003E-001	0,00000E+000	8	...........	-32768,00
	591	11,84	6,90865E-001	2,37712E-005	0,00000E+000	6,91004E-001	0,00000E+000	8	...........	-32768,00
	594	11,9	6,93968E-001	2,22679E-005	0,00000E+000	6,94004E-001	0,00000E+000	8	...........	-32768,00
	597	11,96	6,97071E-001	2,09650E-005	0,00000E+000	6,97004E-001	0,00000E+000	8	...........	-32768,00
	600	12,02	6,99873E-001	1,97891E-005	0,00000E+000	7,00004E-001	0,00000E+000	8	...........	-32768,00
	603	12,08	7,02976E-001	1,88103E-005	0,00000E+000	7,03005E-001	0,00000E+000	8	...........	-32768,00
	606	12,14	7,05979E-001	1,79083E-005	0,00000E+000	7,06005E-001	0,00000E+000	8	...........	-32768,00
	609	12,2	7,08982E-001	1,71299E-005	0,00000E+000	7,09005E-001	0,00000E+000	8	...........	-32768,00
	612	12,26	7,11985E-001	1,64316E-005	0,00000E+000	7,12005E-001	0,00000E+000	8	...........	-32768,00
	615	12,32	7,14988E-001	1,58103E-005	0,00000E+000	7,15006E-001	0,00000E+000	8	...........	-32768,00
	618	12,38	7,17891E-001	1,52858E-005	0,00000E+000	7,18006E-001	0,00000E+000	8	...........	-32768,00
	621	12,44	7,20894E-001	1,47613E-005	0,00000E+000	7,21006E-001	0,00000E+000	8	...........	-32768,00
	624	12,5	7,23896E-001	1,42902E-005	0,00000E+000	7,24006E-001	0,00000E+000	8	...........	-32768,00
	627	12,56	7,26899E-001	1,39127E-005	0,00000E+000	7,26994E-001	0,00000E+000	8	...........	-32768,00
	630	12,62	7,29902E-001	1,36054E-005	0,00000E+000	7,29994E-001	0,00000E+000	8	...........	-32768,00
	633	12,68	7,32905E-001	1,31677E-005	0,00000E+000	7,32994E-001	0,00000E+000	8	...........	-32768,00
	636	12,74	7,35908E-001	1,28170E-005	0,00000E+000	7,35995E-001	0,00000E+000	8	...........	-32768,00
	639	12,8	7,38911E-001	1,25196E-005	0,00000E+000	7,38995E-001	0,00000E+000	8	...........	-32768,00
	642	12,86	7,41914E-001	1,22323E-005	0,00000E+000	7,41995E-001	0,00000E+000	8	...........	-32768,00
	645	12,92	7,44917E-001	1,19784E-005	0,00000E+000	7,44995E-001	0,00000E+000	8	...........	-32768,00
	648	12,98	7,47920E-001	1,17312E-005	0,00000E+000	7,47996E-001	0,00000E+000	8	...........	-32768,00
	651	13,04	7,50922E-001	1,15141E-005	0,00000E+000	7,50996E-001	0,00000E+000	8	...........	-32768,00
	654	13,1	7,53925E-001	1,12802E-005	0,00000E+000	7,53996E-001	0,00000E+000	8	...........	-32768,00
	657	13,16	7,56928E-001	1,11533E-005	0,00000E+000	7,56996E-001	0,00000E+000	8	...........	-32768,00
	660	13,22	7,59931E-001	1,09328E-005	0,00000E+000	7,59997E-001	0,00000E+000	8	...........	-32768,00
	663	13,28	7,62834E-001	1,07457E-005	0,00000E+000	7,62997E-001	0,00000E+000	8	...........	-32768,00
	666	13,34	7,65837E-001	1,06856E-005	0,00000E+000	7,65997E-001	0,00000E+000	8	...........	-32768,00
	669	13,4	7,69040E-001	1,03816E-005	0,00000E+000	7,68997E-001	0,00000E+000	8	...........	-32768,00
	672	13,46	7,71943E-001	1,02713E-005	0,00000E+000	7,71998E-001	0,00000E+000	8	...........	-32768,00
	675	13,52	7,74945E-001	1,02947E-005	0,00000E+000	7,74998E-001	0,00000E+000	8	...........	-32768,00
	678	13,58	7,77948E-001	1,00074E-005	0,00000E+000	7,77998E-001	0,00000E+000	8	...........	-32768,00
	681	13,64	7,80851E-001	9,95062E-006	0,00000E+000	7,80998E-001	0,00000E+000	8	...........	-32768,00
	684	13,7	7,83954E-001	9,73013E-006	0,00000E+000	7,83999E-001	0,00000E+000	8	...........	-32768,00
	687	13,76	7,87057E-001	9,70006E-006	0,00000E+000	7,86999E-001	0,00000E+000	8	...........	-32768,00
	690	13,82	7,89960E-001	9,72345E-006	0,00000E+000	7,89999E-001	0,00000E+000	8	...........	-32768,00
	693	13,88	7,92863E-001	9,48960E-006	0,00000E+000	7,92999E-001	0,00000E+000	8	...........	-32768,00
	696	13,94	7,95966E-001	9,28247E-006	0,00000E+000	7,96000E-001	0,00000E+000	8	...........	-32768,00
	699	14	7,98969E-001	9,16221E-006	0,00000E+000	7,99000E-001	0,00000E+000	8	...........	-32768,00
	702	14,06	7,97968E-001	8,88158E-006	0,00000E+000	7,98000E-001	0,00000E+000	8	...........	-32768,00
	705	14,12	7,94865E-001	8,48738E-006	0,00000E+000	7,94999E-001	0,00000E+000	8	...........	-32768,00
	708	14,18	7,91862E-001	8,16333E-006	0,00000E+000	7,91999E-001	0,00000E+000	8	...........	-32768,00
	711	14,24	7,88959E-001	7,89599E-006	0,00000E+000	7,88999E-001	0,00000E+000	7	...........	-32768,00
	714	14,3	7,85856E-001	7,56083E-006	0,00000E+000	7,85999E-001	0,00000E+000	7	...........	-32768,00
	717	14,36	7,82953E-001	7,26343E-006	0,00000E+000	7,82998E-001	0,00000E+000	7	...........	-32768,00
	720	14,42	7,79950E-001	7,04288E-006	0,00000E+000	7,79998E-001	0,00000E+000	7	...........	-32768,00
	723	14,48	7,76947E-001	6,76520E-006	0,00000E+000	7,76998E-001	0,00000E+000	7	...........	-32768,00
	726	14,54	7,74045E-001	6,57673E-006	0,00000E+000	7,73998E-001	0,00000E+000	7	...........	-32768,00
	729	14,6	7,70842E-001	6,31943E-006	0,00000E+000	7,70998E-001	0,00000E+000	7	...........	-32768,00
	732	14,66	7,68039E-001	6,13632E-006	0,00000E+000	7,67997E-001	0,00000E+000	7	...........	-32768,00
	735	14,72	7,64836E-001	5,96088E-006	0,00000E+000	7,64997E-001	0,00000E+000	7	...........	-32768,00
	738	14,78	7,61933E-001	5,76874E-006	0,00000E+000	7,61997E-001	0,00000E+000	7	...........	-32768,00
	741	14,84	7,58830E-001	5,62506E-006	0,00000E+000	7,58997E-001	0,00000E+000	7	...........	-32768,00
	744	14,9	7,55927E-001	5,45898E-006	0,00000E+000	7,55996E-001	0,00000E+000	7	...........	-32768,00
	747	14,96	7,52924E-001	5,30961E-006	0,00000E+000	7,52996E-001	0,00000E+000	7	...........	-32768,00
	750	15,02	7,49921E-001	5,14721E-006	0,00000E+000	7,49996E-001	0,00000E+000	7	...........	-32768,00
	753	15,08	7,46818E-001	5,00753E-006	0,00000E+000	7,46996E-001	0,00000E+000	7	...........	-32768,00
	756	15,14	7,43916E-001	4,89392E-006	0,00000E+000	7,43995E-001	0,00000E+000	7	...........	-32768,00
	759	15,2	7,40813E-001	4,75725E-006	0,00000E+000	7,40995E-001	0,00000E+000	7	...........	-32768,00
	762	15,26	7,38010E-001	4,61089E-006	0,00000E+000	7,37995E-001	0,00000E+000	7	...........	-32768,00
	765	15,32	7,34907E-001	4,46954E-006	0,00000E+000	7,34995E-001	0,00000E+000	7	...........	-32768,00
	768	15,38	7,31804E-001	4,36595E-006	0,00000E+000	7,31994E-001	0,00000E+000	7	...........	-32768,00
	771	15,44	7,28901E-001	4,26069E-006	0,00000E+000	7,28994E-001	0,00000E+000	7	...........	-32768,00
	774	15,5	7,25999E-001	4,14441E-006	0,00000E+000	7,25994E-001	0,00000E+000	7	...........	-32768,00
	777	15,56	7,22896E-001	4,05552E-006	0,00000E+000	7,23006E-001	0,00000E+000	7	...........	-32768,00
	780	15,62	7,19893E-001	3,94658E-006	0,00000E+000	7,20006E-001	0,00000E+000	7	...........	-32768,00
	783	15,68	7,16990E-001	3,85469E-006	0,00000E+000	7,17006E-001	0,00000E+000	7	...........	-32768,00
	786	15,74	7,13987E-001	3,77616E-006	0,00000E+000	7,14005E-001	0,00000E+000	7	...........	-32768,00
	789	15,8	7,10884E-001	3,66790E-006	0,00000E+000	7,11005E-001	0,00000E+000	7	...........	-32768,00
	792	15,86	7,07881E-001	3,56030E-006	0,00000E+000	7,08005E-001	0,00000E+000	7	...........	-32768,00
	795	15,92	7,04878E-001	3,50216E-006	0,00000E+000	7,05005E-001	0,00000E+000	7	...........	-32768,00
	798	15,98	7,01875E-001	3,40692E-006	0,00000E+000	7,02004E-001	0,00000E+000	7	...........	-32768,00
	801	16,04	6,98973E-001	3,33107E-006	0,00000E+000	6,99004E-001	0,00000E+000	7	...........	-32768,00
	804	16,1	6,95870E-001	3,24419E-006	0,00000E+000	6,96004E-001	0,00000E+000	7	...........	-32768,00
	807	16,16	6,92867E-001	3,16165E-006	0,00000E+000	6,93004E-001	0,00000E+000	7	...........	-32768,00
	810	16,22	6,89964E-001	3,10852E-006	0,00000E+000	6,90004E-001	0,00000E+000	7	...........	-32768,00
	813	16,28	6,86861E-001	3,02331E-006	0,00000E+000	6,87003E-001	0,00000E+000	7	...........	-32768,00
	816	16,34	6,83958E-001	2,98020E-006	0,00000E+000	6,84003E-001	0,00000E+000	7	...........	-32768,00
	819	16,4	6,80955E-001	2,91237E-006	0,00000E+000	6,81003E-001	0,00000E+000	7	...........	-32768,00
	822	16,46	6,77852E-001	2,81814E-006	0,00000E+000	6,78003E-001	0,00000E+000	7	...........	-32768,00
	825	16,52	6,74949E-001	2,74930E-006	0,00000E+000	6,75002E-001	0,00000E+000	7	...........	-32768,00
	828	16,58	6,71947E-001	2,69149E-006	0,00000E+000	6,72002E-001	0,00000E+000	7	...........	-32768,00
	831	16,64	6,68944E-001	2,62633E-006	0,00000E+000	6,69002E-001	0,00000E+000	7	...........	-32768,00
	834	16,7	6,65941E-001	2,57420E-006	0,00000E+000	6,66002E-001	0,00000E+000	7	...........	-32768,00
	837	16,76	6,62838E-001	2,50202E-006	0,00000E+000	6,63001E-001	0,00000E+000	7	...........	-32768,00
	840	16,82	6,59935E-001	2,44421E-006	0,00000E+000	6,60001E-001	0,00000E+000	7	...........	-32768,00
	843	16,88	6,56932E-001	2,37705E-006	0,00000E+000	6,57001E-001	0,00000E+000	7	...........	-32768,00
	846	16,94	6,53929E-001	2,33194E-006	0,00000E+000	6,54001E-001	0,00000E+000	7	...........	-32768,00
	849	17	6,50926E-001	2,25141E-006	0,00000E+000	6,51000E-001	0,00000E+000	7	...........	-32768,00
	852	17,06	6,47923E-001	2,20128E-006	0,00000E+000	6,48000E-001	0,00000E+000	7	...........	-32768,00
	855	17,12	6,44921E-001	2,15016E-006	0,00000E+000	6,45000E-001	0,00000E+000	7	...........	-32768,00
	858	17,18	6,41918E-001	2,07865E-006	0,00000E+000	6,42000E-001	0,00000E+000	7	...........	-32768,00
	861	17,24	6,38915E-001	2,04824E-006	0,00000E+000	6,38999E-001	0,00000E+000	7	...........	-32768,00
	864	17,3	6,35912E-001	1,98675E-006	0,00000E+000	6,35999E-001	0,00000E+000	7	...........	-32768,00
	867	17,36	6,32909E-001	1,93028E-006	0,00000E+000	6,32999E-001	0,00000E+000	7	...........	-32768,00
	870	17,42	6,29906E-001	1,88918E-006	0,00000E+000	6,29999E-001	0,00000E+000	7	...........	-32768,00
	873	17,48	6,26803E-001	1,81734E-006	0,00000E+000	6,26998E-001	0,00000E+000	7	...........	-32768,00
	876	17,54	6,23900E-001	1,78058E-006	0,00000E+000	6,23998E-001	0,00000E+000	7	...........	-32768,00
	879	17,6	6,20897E-001	1,73012E-006	0,00000E+000	6,20998E-001	0,00000E+000	7	...........	-32768,00
	882	17,66	6,17995E-001	1,66229E-006	0,00000E+000	6,17998E-001	0,00000E+000	7	...........	-32768,00
	885	17,72	6,14892E-001	1,61985E-006	0,00000E+000	6,14998E-001	0,00000E+000	7	...........	-32768,00
	888	17,78	6,11889E-001	1,56705E-006	0,00000E+000	6,11997E-001	0,00000E+000	7	...........	-32768,00
	891	17,84	6,08786E-001	1,51426E-006	0,00000E+000	6,08997E-001	0,00000E+000	7	...........	-32768,00
	894	17,9	6,05883E-001	1,46313E-006	0,00000E+000	6,05997E-001	0,00000E+000	7	...........	-32768,00
	897	17,96	6,02880E-001	1,41234E-006	0,00000E+000	6,02997E-001	0,00000E+000	7	...........	-32768,00
	900	18,02	5,99977E-001	1,36322E-006	0,00000E+000	5,99996E-001	0,00000E+000	7	...........	-32768,00
	903	18,08	5,96874E-001	1,29438E-006	0,00000E+000	5,96996E-001	0,00000E+000	7	...........	-32768,00
	906	18,14	5,93872E-001	1,26531E-006	0,00000E+000	5,93996E-001	0,00000E+000	7	...........	-32768,00
	909	18,2	5,90869E-001	1,20449E-006	0,00000E+000	5,90996E-001	0,00000E+000	7	...........	-32768,00
	912	18,26	5,87866E-001	1,15470E-006	0,00000E+000	5,87995E-001	0,00000E+000	7	...........	-32768,00
	915	18,32	5,84863E-001	1,10959E-006	0,00000E+000	5,84995E-001	0,00000E+000	7	...........	-32768,00
	918	18,38	5,81860E-001	1,02973E-006	0,00000E+000	5,81995E-001	0,00000E+000	7	...........	-32768,00
	921	18,44	5,78857E-001	9,86956E-007	0,00000E+000	5,78995E-001	0,00000E+000	7	...........	-32768,00
	924	18,5	5,75854E-001	9,30484E-007	0,00000E+000	5,75994E-001	0,00000E+000	7	...........	-32768,00
	927	18,56	5,72751E-001	8,76350E-007	0,00000E+000	5,72994E-001	0,00000E+000	7	...........	-32768,00
	930	18,62	5,69949E-001	8,20880E-007	0,00000E+000	5,69994E-001	0,00000E+000	7	...........	-32768,00
	933	18,68	5,66846E-001	7,56388E-007	0,00000E+000	5,67006E-001	0,00000E+000	7	...........	-32768,00
	936	18,74	5,63743E-001	7,09940E-007	0,00000E+000	5,64006E-001	0,00000E+000	7	...........	-32768,00
	939	18,8	5,60940E-001	6,56141E-007	0,00000E+000	5,61006E-001	0,00000E+000	7	...........	-32768,00
	942	18,86	5,57837E-001	5,93653E-007	0,00000E+000	5,58005E-001	0,00000E+000	7	...........	-32768,00
	945	18,92	5,54934E-001	5,57565E-007	0,00000E+000	5,55005E-001	0,00000E+000	7	...........	-32768,00
	948	18,98	5,51931E-001	5,07107E-007	0,00000E+000	5,52005E-001	0,00000E+000	7	...........	-32768,00
	951	19,04	5,48828E-001	4,87392E-007	0,00000E+000	5,49005E-001	0,00000E+000	7	...........	-32768,00
	954	19,1	5,45825E-001	4,42949E-007	0,00000E+000	5,46004E-001	0,00000E+000	7	...........	-32768,00
	957	19,16	5,42822E-001	4,07862E-007	0,00000E+000	5,43004E-001	0,00000E+000	7	...........	-32768,00
	960	19,22	5,39920E-001	3,74781E-007	0,00000E+000	5,40004E-001	0,00000E+000	7	...........	-32768,00
	963	19,28	5,36817E-001	3,49719E-007	0,00000E+000	5,37004E-001	0,00000E+000	7	...........	-32768,00
	966	19,34	5,33914E-001	3,28667E-007	0,00000E+000	5,34003E-001	0,00000E+000	7	...........	-32768,00
	969	19,4	5,30911E-001	2,95920E-007	0,00000E+000	5,31003E-001	0,00000E+000	7	...........	-32768,00
	972	19,46	5,27808E-001	2,73531E-007	0,00000E+000	5,28003E-001	0,00000E+000	7	...........	-32768,00
	975	19,52	5,24905E-001	2,55821E-007	0,00000E+000	5,25003E-001	0,00000E+000	7	...........	-32768,00
	978	19,58	5,21902E-001	2,24744E-007	0,00000E+000	5,22003E-001	0,00000E+000	7	...........	-32768,00
	981	19,64	5,18799E-001	2,04361E-007	0,00000E+000	5,19002E-001	0,00000E+000	7	...........	-32768,00
	984	19,7	5,15796E-001	1,73284E-007	0,00000E+000	5,16002E-001	0,00000E+000	7	...........	-32768,00
	987	19,76	5,12894E-001	1,55908E-007	0,00000E+000	5,13002E-001	0,00000E+000	7	...........	-32768,00
	990	19,82	5,09891E-001	1,32517E-007	0,00000E+000	5,10002E-001	0,00000E+000	7	...........	-32768,00
	993	19,88	5,06788E-001	9,47571E-008	0,00000E+000	5,07001E-001	0,00000E+000	7	...........	-32768,00
	996	19,94	5,03785E-001	8,13908E-008	0,00000E+000	5,04001E-001	0,00000E+000	7	...........	-32768,00
	999	20	5,00782E-001	5,63291E-008	0,00000E+000	5,01001E-001	0,00000E+000	7	...........	-32768,00
	1002	20,06	4,97879E-001	2,85940E-008	0,00000E+000	4,98001E-001	0,00000E+000	7	...........	-32768,00
	1005	20,12	4,94876E-001	-2,14841E-009	0,00000E+000	4,95000E-001	0,00000E+000	7	...........	-32768,00
	1008	20,18	4,91874E-001	-3,75690E-008	0,00000E+000	4,92000E-001	0,00000E+000	7	...........	-32768,00
	1011	20,24	4,88871E-001	-6,49699E-008	0,00000E+000	4,89000E-001	0,00000E+000	7	...........	-32768,00
	1014	20,3	4,85768E-001	-9,87198E-008	0,00000E+000	4,86000E-001	0,00000E+000	7	...........	-32768,00
	1017	20,36	4,82765E-001	-1,35143E-007	0,00000E+000	4,82999E-001	0,00000E+000	7	...........	-32768,00
	1020	20,42	4,79862E-001	-1,72234E-007	0,00000E+000	4,79999E-001	0,00000E+000	7	...........	-32768,00
	1023	20,48	4,76859E-001	-2,25365E-007	0,00000E+000	4,76999E-001	0,00000E+000	7	...........	-32768,00
	1026	20,54	4,73856E-001	-2,55774E-007	0,00000E+000	4,73999E-001	0,00000E+000	7	...........	-32768,00
	1029	20,6	4,70853E-001	-2,97877E-007	0,00000E+000	4,70998E-001	0,00000E+000	7	...........	-32768,00
	1032	20,66	4,67850E-001	-3,62035E-007	0,00000E+000	4,67998E-001	0,00000E+000	7	...........	-32768,00
	1035	20,72	4,64848E-001	-4,02134E-007	0,00000E+000	4,64998E-001	0,00000E+000	7	...........	-32768,00
	1038	20,78	4,61945E-001	-4,70636E-007	0,00000E+000	4,61998E-001	0,00000E+000	7	...........	-32768,00
	1041	20,84	4,58842E-001	-5,41812E-007	0,00000E+000	4,58997E-001	0,00000E+000	7	...........	-32768,00
	1044	20,9	4,55839E-001	-6,64447E-007	0,00000E+000	4,55997E-001	0,00000E+000	7	...........	-32768,00
	1047	20,96	4,52836E-001	-8,53580E-007	0,00000E+000	4,52997E-001	0,00000E+000	7	...........	-32768,00
	1050	21,02	4,49933E-001	-1,23218E-006	0,00000E+000	4,49997E-001	0,00000E+000	7	...........	-32768,00
	1053	21,08	4,46930E-001	-1,88613E-006	0,00000E+000	4,46997E-001	0,00000E+000	7	...........	-32768,00
	1056	21,14	4,43827E-001	-2,90163E-006	0,00000E+000	4,43996E-001	0,00000E+000	7	...........	-32768,00
	1059	21,2	4,40824E-001	-4,38863E-006	0,00000E+000	4,40996E-001	0,00000E+000	7	...........	-32768,00
	1062	21,26	4,37922E-001	-6,41729E-006	0,00000E+000	4,37996E-001	0,00000E+000	7	...........	-32768,00
	1065	21,32	4,34919E-001	-8,90442E-006	0,00000E+000	4,34996E-001	0,00000E+000	7	...........	-32768,00
	1068	21,38	4,31816E-001	-1,18410E-005	0,00000E+000	4,31995E-001	0,00000E+000	8	...........	-32768,00
	1071	21,44	4,28913E-001	-1,50281E-005	0,00000E+000	4,28995E-001	0,00000E+000	8	...........	-32768,00
	1074	21,5	4,25810E-001	-1,83588E-005	0,00000E+000	4,25995E-001	0,00000E+000	8	...........	-32768,00
	1077	21,56	4,22807E-001	-2,17864E-005	0,00000E+000	4,22995E-001	0,00000E+000	8	...........	-32768,00
	1080	21,62	4,19904E-001	-2,51639E-005	0,00000E+000	4,19994E-001	0,00000E+000	8	...........	-32768,00
	1083	21,68	4,16901E-001	-2,84745E-005	0,00000E+000	4,16994E-001	0,00000E+000	8	...........	-32768,00
	1086	21,74	4,13698E-001	-3,16482E-005	0,00000E+000	4,13994E-001	0,00000E+000	8	...........	-32768,00
	1089	21,8	4,10796E-001	-3,46315E-005	0,00000E+000	4,11006E-001	0,00000E+000	8	...........	-32768,00
	1092	21,86	4,07893E-001	-3,74210E-005	0,00000E+000	4,08006E-001	0,00000E+000	8	...........	-32768,00
	1095	21,92	4,04890E-001	-3,99700E-005	0,00000E+000	4,05006E-001	0,00000E+000	8	...........	-32768,00
	1098	21,98	4,01887E-001	-4,22718E-005	0,00000E+000	4,02005E-001	0,00000E+000	8	...........	-32768,00
	1101	22,04	3,98784E-001	-4,42929E-005	0,00000E+000	3,99005E-001	0,00000E+000	8	...........	-32768,00
	1104	22,1	3,95781E-001	-4,60234E-005	0,00000E+000	3,96005E-001	0,00000E+000	8	...........	-32768,00
	1107	22,16	3,92878E-001	-4,74666E-005	0,00000E+000	3,93005E-001	0,00000E+000	8	...........	-32768,00
	1110	22,22	3,89876E-001	-4,86225E-005	0,00000E+000	3,90004E-001	0,00000E+000	8	...........	-32768,00
	1113	22,28	3,86873E-001	-4,95278E-005	0,00000E+000	3,87004E-001	0,00000E+000	8	...........	-32768,00
	1116	22,34	3,83870E-001	-5,01659E-005	0,00000E+000	3,84004E-001	0,00000E+000	8	...........	-32768,00
	1119	22,4	3,80867E-001	-5,05534E-005	0,00000E+000	3,81004E-001	0,00000E+000	8	...........	-32768,00
	1122	22,46	3,77864E-001	-5,07338E-005	0,00000E+000	3,78003E-001	0,00000E+000	8	...........	-32768,00
	1125	22,52	3,74861E-001	-5,06904E-005	0,00000E+000	3,75003E-001	0,00000E+000	8	...........	-32768,00
	1128	22,58	3,71858E-001	-5,04967E-005	0,00000E+000	3,72003E-001	0,00000E+000	8	...........	-32768,00
	1131	22,64	3,68855E-001	-5,01359E-005	0,00000E+000	3,69003E-001	0,00000E+000	8	...........	-32768,00
	1134	22,7	3,65852E-001	-4,96347E-005	0,00000E+000	3,66003E-001	0,00000E+000	8	...........	-32768,00
	1137	22,76	3,62749E-001	-4,90334E-005	0,00000E+000	3,63002E-001	0,00000E+000	8	...........	-32768,00
	1140	22,82	3,59947E-001	-4,83185E-005	0,00000E+000	3,60002E-001	0,00000E+000	8	...........	-32768,00
	1143	22,88	3,56744E-001	-4,75434E-005	0,00000E+000	3,57002E-001	0,00000E+000	8	...........	-32768,00
	1146	22,94	3,53841E-001	-4,67250E-005	0,00000E+000	3,54002E-001	0,00000E+000	8	...........	-32768,00
	1149	23	3,50838E-001	-4,58397E-005	0,00000E+000	3,51001E-001	0,00000E+000	8	...........	-32768,00
	1152	23,06	3,47835E-001	-4,49611E-005	0,00000E+000	3,48001E-001	0,00000E+000	8	...........	-32768,00
	1155	23,12	3,44832E-001	-4,40524E-005	0,00000E+000	3,45001E-001	0,00000E+000	8	...........	-32768,00
	1158	23,18	3,41929E-001	-4,31404E-005	0,00000E+000	3,42001E-001	0,00000E+000	8	...........	-32768,00
	1161	23,24	3,38626E-001	-4,22350E-005	0,00000E+000	3,39000E-001	0,00000E+000	8	...........	-32768,00
	1164	23,3	3,35824E-001	-4,13297E-005	0,00000E+000	3,36000E-001	0,00000E+000	8	...........	-32768,00
	1167	23,36	3,32821E-001	-4,04511E-005	0,00000E+000	3,33000E-001	0,00000E+000	8	...........	-32768,00
	1170	23,42	3,29818E-001	-3,95691E-005	0,00000E+000	3,30000E-001	0,00000E+000	8	...........	-32768,00
	1173	23,48	3,26815E-001	-3,87172E-005	0,00000E+000	3,26999E-001	0,00000E+000	8	...........	-32768,00
	1176	23,54	3,23812E-001	-3,78486E-005	0,00000E+000	3,23999E-001	0,00000E+000	8	...........	-32768,00
	1179	23,6	3,20809E-001	-3,70268E-005	0,00000E+000	3,20999E-001	0,00000E+000	8	...........	-32768,00
	1182	23,66	3,17906E-001	-3,62417E-005	0,00000E+000	3,17999E-001	0,00000E+000	8	...........	-32768,00
	1185	23,72	3,14703E-001	-3,54834E-005	0,00000E+000	3,14998E-001	0,00000E+000	8	...........	-32768,00
	1188	23,78	3,11801E-001	-3,47351E-005	0,00000E+000	3,11998E-001	0,00000E+000	8	...........	-32768,00
	1191	23,84	3,08898E-001	-3,39801E-005	0,00000E+000	3,08998E-001	0,00000E+000	8	...........	-32768,00
	1194	23,9	3,05895E-001	-3,32885E-005	0,00000E+000	3,05998E-001	0,00000E+000	8	...........	-32768,00
	1197	23,96	3,02892E-001	-3,25937E-005	0,00000E+000	3,02997E-001	0,00000E+000	8	...........	-32768,00
	1200	24,02	2,99789E-001	-3,19522E-005	0,00000E+000	2,99997E-001	0,00000E+000	8	...........	-32768,00
	1203	24,08	2,96786E-001	-3,13075E-005	0,00000E+000	2,96997E-001	0,00000E+000	8	...........	-32768,00
	1206	24,14	2,93783E-001	-3,07061E-005	0,00000E+000	2,93997E-001	0,00000E+000	8	...........	-32768,00
	1209	24,2	2,90780E-001	-3,01182E-005	0,00000E+000	2,90996E-001	0,00000E+000	8	...........	-32768,00
	1212	24,26	2,87878E-001	-2,95369E-005	0,00000E+000	2,87996E-001	0,00000E+000	8	...........	-32768,00
	1215	24,32	2,84775E-001	-2,89890E-005	0,00000E+000	2,84996E-001	0,00000E+000	8	...........	-32768,00
	1218	24,38	2,81772E-001	-2,84645E-005	0,00000E+000	2,81996E-001	0,00000E+000	8	...........	-32768,00
	1221	24,44	2,78769E-001	-2,79567E-005	0,00000E+000	2,78996E-001	0,00000E+000	8	...........	-32768,00
	1224	24,5	2,75766E-001	-2,74723E-005	0,00000E+000	2,75995E-001	0,00000E+000	8	...........	-32768,00
	1227	24,56	2,72863E-001	-2,69879E-005	0,00000E+000	2,72995E-001	0,00000E+000	8	...........	-32768,00
	1230	24,62	2,69760E-001	-2,65436E-005	0,00000E+000	2,69995E-001	0,00000E+000	8	...........	-32768,00
	1233	24,68	2,66757E-001	-2,60959E-005	0,00000E+000	2,66995E-001	0,00000E+000	8	...........	-32768,00
	1236	24,74	2,63854E-001	-2,56616E-005	0,00000E+000	2,63994E-001	0,00000E+000	8	...........	-32768,00
	1239	24,8	2,60852E-001	-2,52440E-005	0,00000E+000	2,60994E-001	0,00000E+000	8	...........	-32768,00
	1242	24,86	2,57849E-001	-2,48532E-005	0,00000E+000	2,57994E-001	0,00000E+000	8	...........	-32768,00
	1245	24,92	2,54846E-001	-2,44690E-005	0,00000E+000	2,55006E-001	0,00000E+000	8	...........	-32768,00
	1248	24,98	2,51843E-001	-2,40915E-005	0,00000E+000	2,52006E-001	0,00000E+000	8	...........	-32768,00
	1251	25,04	2,48840E-001	-2,37541E-005	0,00000E+000	2,49006E-001	0,00000E+000	8	...........	-32768,00
	1254	25,1	2,45837E-001	-2,33966E-005	0,00000E+000	2,46005E-001	0,00000E+000	8	...........	-32768,00
	1257	25,16	2,42834E-001	-2,30759E-005	0,00000E+000	2,43005E-001	0,00000E+000	8	...........	-32768,00
	1260	25,22	2,39831E-001	-2,27452E-005	0,00000E+000	2,40005E-001	0,00000E+000	8	...........	-32768,00
	1263	25,28	2,36828E-001	-2,24345E-005	0,00000E+000	2,37005E-001	0,00000E+000	8	...........	-32768,00
	1266	25,34	2,33826E-001	-2,21405E-005	0,00000E+000	2,34004E-001	0,00000E+000	8	...........	-32768,00
	1269	25,4	2,30723E-001	-2,18465E-005	0,00000E+000	2,31004E-001	0,00000E+000	8	...........	-32768,00
	1272	25,46	2,27820E-001	-2,15759E-005	0,00000E+000	2,28004E-001	0,00000E+000	8	...........	-32768,00
	1275	25,52	2,24817E-001	-2,12986E-005	0,00000E+000	2,25004E-001	0,00000E+000	8	...........	-32768,00
	1278	25,58	2,21814E-001	-2,10380E-005	0,00000E+000	2,22003E-001	0,00000E+000	8	...........	-32768,00
	1281	25,64	2,18711E-001	-2,07875E-005	0,00000E+000	2,19003E-001	0,00000E+000	8	...........	-32768,00
	1284	25,7	2,15808E-001	-2,05436E-005	0,00000E+000	2,16003E-001	0,00000E+000	8	...........	-32768,00
	1287	25,76	2,12805E-001	-2,03098E-005	0,00000E+000	2,13003E-001	0,00000E+000	8	...........	-32768,00
	1290	25,82	2,09702E-001	-2,00759E-005	0,00000E+000	2,10003E-001	0,00000E+000	8	...........	-32768,00
	1293	25,88	2,06800E-001	-1,98521E-005	0,00000E+000	2,07002E-001	0,00000E+000	8	...........	-32768,00
	1296	25,94	2,03697E-001	-1,96349E-005	0,00000E+000	2,04002E-001	0,00000E+000	8	...........	-32768,00
	1299	26	2,00794E-001	-1,94312E-005	0,00000E+000	2,01002E-001	0,00000E+000	8	...........	-32768,00
	1302	26,06	1,97791E-001	-1,92341E-005	0,00000E+000	1,98002E-001	0,00000E+000	8	...........	-32768,00
	1305	26,12	1,94788E-001	-1,90202E-005	0,00000E+000	1,95001E-001	0,00000E+000	8	...........	-32768,00
	1308	26,18	1,91785E-001	-1,88432E-005	0,00000E+000	1,92001E-001	0,00000E+000	8	...........	-32768,00
	1311	26,24	1,88782E-001	-1,86427E-005	0,00000E+000	1,89001E-001	0,00000E+000	8	...........	-32768,00
	1314	26,3	1,85779E-001	-1,84690E-005	0,00000E+000	1,86001E-001	0,00000E+000	8	...........	-32768,00
	1317	26,36	1,82777E-001	-1,83053E-005	0,00000E+000	1,83000E-001	0,00000E+000	8	...........	-32768,00
	1320	26,42	1,79674E-001	-1,81349E-005	0,00000E+000	1,80000E-001	0,00000E+000	8	...........	-32768,00
	1323	26,48	1,76871E-001	-1,79746E-005	0,00000E+000	1,77000E-001	0,00000E+000	8	...........	-32768,00
	1326	26,54	1,73868E-001	-1,78042E-005	0,00000E+000	1,74000E-001	0,00000E+000	8	...........	-32768,00
	1329	26,6	1,70865E-001	-1,76405E-005	0,00000E+000	1,70999E-001	0,00000E+000	8	...........	-32768,00
	1332	26,66	1,67862E-001	-1,75069E-005	0,00000E+000	1,67999E-001	0,00000E+000	8	...........	-32768,00
	1335	26,72	1,64859E-001	-1,73465E-005	0,00000E+000	1,64999E-001	0,00000E+000	8	...........	-32768,00
	1338	26,78	1,61756E-001	-1,72129E-005	0,00000E+000	1,61999E-001	0,00000E+000	8	...........	-32768,00
	1341	26,84	1,58854E-001	-1,71060E-005	0,00000E+000	1,58998E-001	0,00000E+000	8	...........	-32768,00
	1344	26,9	1,55851E-001	-1,69223E-005	0,00000E+000	1,55998E-001	0,00000E+000	8	...........	-32768,00
	1347	26,96	1,52848E-001	-1,68020E-005	0,00000E+000	1,52998E-001	0,00000E+000	8	...........	-32768,00
	1350	27,02	1,49745E-001	-1,66684E-005	0,00000E+000	1,49998E-001	0,00000E+000	8	...........	-32768,00
	1353	27,08	1,46742E-001	-1,65347E-005	0,00000E+000	1,46997E-001	0,00000E+000	8	...........	-32768,00
	1356	27,14	1,43839E-001	-1,64412E-005	0,00000E+000	1,43997E-001	0,00000E+000	8	...........	-32768,00
	1359	27,2	1,40836E-001	-1,63076E-005	0,00000E+000	1,40997E-001	0,00000E+000	8	...........	-32768,00
	1362	27,26	1,37833E-001	-1,61940E-005	0,00000E+000	1,37997E-001	0,00000E+000	8	...........	-32768,00
	1365	27,32	1,34730E-001	-1,61171E-005	0,00000E+000	1,34997E-001	0,00000E+000	8	...........	-32768,00
	1368	27,38	1,31828E-001	-1,60069E-005	0,00000E+000	1,31996E-001	0,00000E+000	8	...........	-32768,00
	1371	27,44	1,28925E-001	-1,59000E-005	0,00000E+000	1,28996E-001	0,00000E+000	8	...........	-32768,00
	1374	27,5	1,25822E-001	-1,58131E-005	0,00000E+000	1,25996E-001	0,00000E+000	8	...........	-32768,00
	1377	27,56	1,22719E-001	-1,57163E-005	0,00000E+000	1,22996E-001	0,00000E+000	8	...........	-32768,00
	1380	27,62	1,19716E-001	-1,56027E-005	0,00000E+000	1,19995E-001	0,00000E+000	8	...........	-32768,00
	1383	27,68	1,16813E-001	-1,55225E-005	0,00000E+000	1,16995E-001	0,00000E+000	8	...........	-32768,00
	1386	27,74	1,13810E-001	-1,54457E-005	0,00000E+000	1,13995E-001	0,00000E+000	8	...........	-32768,00
	1389	27,8	1,10807E-001	-1,53722E-005	0,00000E+000	1,10995E-001	0,00000E+000	8	...........	-32768,00
	1392	27,86	1,07704E-001	-1,53154E-005	0,00000E+000	1,07994E-001	0,00000E+000	8	...........	-32768,00
	1395	27,92	1,04802E-001	-1,52318E-005	0,00000E+000	1,04994E-001	0,00000E+000	8	...........	-32768,00
	1398	27,98	1,01699E-001	-1,51483E-005	0,00000E+000	1,01994E-001	0,00000E+000	8	...........	-32768,00
	1400	28,02	9,97968E-002	-1,51383E-005	0,00000E+000	1,00006E-001	0,00000E+000	8	...........	-32768,00