File: HOPG_cv/1mM/AgNO3_HOPG_1mM_3_40mv_cv.DTA
EXPLAIN
TAG	CV
TITLE	LABEL	Cyclic Voltammetry	Test &Identifier
DATE	LABEL	7/4/2022	Date
TIME	LABEL	19:02:31	Time
NOTES	NOTES	2	&Notes...
	07/04/22 , 1mM  AgNO3

PSTAT	PSTAT	IFC1000-09004	Potentiostat
VINIT	POTEN	1,00000E-001	F	Initial &E (V)
VLIMIT1	POTEN	1,00000E-001	F	Scan Limit &1 (V)
VLIMIT2	POTEN	8,00000E-001	F	Scan Limit &2 (V)
VFINAL	POTEN	1,00000E-001	F	Final &E (V)
SCANRATE	QUANT	3,99999E+001	&Scan Rate (mV/s)
STEPSIZE	QUANT	1,00000E+000	St&ep Size (mV)
CYCLES	IQUANT	1	C&ycles (#)
IMODE	SELECTOR	0	I/E Range &Mode
IRANGE	QUANT	1,00000E-005	&Max Current (mA)
AREA	QUANT	1,00000E+000	Electrode &Area (cm^2)
ELECTRODETYPE	SELECTOR	0	Electrode Type
STRIPPING	TOGGLE	F	Used for Stripping
POLARITY	TOGGLE	F	Signal Polarity
CONDIT	TWOPARAM	F	1,50000E+001	0,00000E+000	Conditionin&g	Time(s)	E(V)
DELAY	TWOPARAM	F	3,00000E+001	0,00000E+000	Init. De&lay	Time(s)	Stab.(mV/s)
EQDELAY	QUANT	1,00000E+001	Equil. &Time (s)
IRCOMP	SELECTOR	0	IRCom&p
PFCOR	QUANT	5,00000E+001	PF Corr. (ohm)
SAMPLINGMODE	SELECTOR	0	Sampling &Mode
EOC	QUANT	0	Open Circuit (V)
PSTATMODEL	IQUANT	48	Pstat Model
PSTATSECTION	LABEL	IFC1000-09004	Pstat Section
PSTATSERIALNO	LABEL	09004	Pstat Serial Number
CTRLMODE	IQUANT	1	Control Mode
ELECTROMETER	IQUANT	0	RE=0 or CS=1
IESTAB	IQUANT	2	I/E Stability
CASPEED	IQUANT	4	Control Amp Speed
CONVENTION	IQUANT	1	Current Convention
ICHRANGE	IQUANT	2	Ich Range
ICHRANGEMODE	TOGGLE	F	Ich Auto Range
ICHOFFSETENABLE	TOGGLE	F	Ich Offset Enable
ICHOFFSET	QUANT	0	Ich Offset (V)
ICHFILTER	IQUANT	3	Ich Filter
VCHRANGE	IQUANT	2	Vch Range
VCHRANGEMODE	TOGGLE	F	Vch Auto Range
VCHOFFSETENABLE	TOGGLE	F	Vch Offset Enable
VCHOFFSET	QUANT	0	Vch Offset (V)
VCHFILTER	IQUANT	3	Vch Filter
IERANGELOWERLIMIT	IQUANT	4	I/E Range Lower Limit
IERANGEMODE	TOGGLE	T	I/E AutoRange
IERANGE	IQUANT	5	I/E Range
ACHSELECT	IQUANT	0	Ach Select
ACHRANGE	IQUANT	2	Ach Range
ACHOFFSETENABLE	TOGGLE	F	Ach Offset Enable
ACHOFFSET	QUANT	0	Ach Offset (V)
ACHFILTER	IQUANT	1	Ach Filter
CABLEID	IQUANT	14	Cable ID
DCCALDATE	LABEL	3/18/2022	DC Calibration Date
ACCALDATE	LABEL	3/10/2016	AC Calibration Date
FRAMEWORKVERSION	QUANT	7,05	Framework Version
INSTRUMENTVERSION	LABEL	4.21	Instrument Version
CURVE1	TABLE
	Pt	T	Vf	Im	Vu	Sig	Ach	IERange	Over	Temp
	#	s	V vs. Ref.	A	V	V	V	#	bits	deg C
	0	0,025	9,97968E-002	-7,36296E-006	0,00000E+000	1,00006E-001	0,00000E+000	7	...........	-32768,00
	3	0,1	1,02800E-001	-7,21626E-006	0,00000E+000	1,02994E-001	0,00000E+000	7	...........	-32768,00
	6	0,175	1,05803E-001	-7,10031E-006	0,00000E+000	1,05994E-001	0,00000E+000	7	...........	-32768,00
	9	0,25	1,08805E-001	-7,03047E-006	0,00000E+000	1,08994E-001	0,00000E+000	7	...........	-32768,00
	12	0,325	1,11608E-001	-6,94393E-006	0,00000E+000	1,11995E-001	0,00000E+000	7	...........	-32768,00
	15	0,4	1,14811E-001	-6,84936E-006	0,00000E+000	1,14995E-001	0,00000E+000	7	...........	-32768,00
	18	0,475	1,17814E-001	-6,78286E-006	0,00000E+000	1,17995E-001	0,00000E+000	7	...........	-32768,00
	21	0,55	1,20817E-001	-6,71369E-006	0,00000E+000	1,20995E-001	0,00000E+000	7	...........	-32768,00
	24	0,625	1,23820E-001	-6,63650E-006	0,00000E+000	1,23996E-001	0,00000E+000	7	...........	-32768,00
	27	0,7	1,26823E-001	-6,57602E-006	0,00000E+000	1,26996E-001	0,00000E+000	7	...........	-32768,00
	30	0,775	1,29826E-001	-6,52021E-006	0,00000E+000	1,29996E-001	0,00000E+000	7	...........	-32768,00
	33	0,85	1,32829E-001	-6,45505E-006	0,00000E+000	1,32996E-001	0,00000E+000	7	...........	-32768,00
	36	0,925	1,35831E-001	-6,39390E-006	0,00000E+000	1,35997E-001	0,00000E+000	7	...........	-32768,00
	39	1	1,38734E-001	-6,33944E-006	0,00000E+000	1,38997E-001	0,00000E+000	7	...........	-32768,00
	42	1,075	1,41837E-001	-6,28664E-006	0,00000E+000	1,41997E-001	0,00000E+000	7	...........	-32768,00
	45	1,15	1,44840E-001	-6,23785E-006	0,00000E+000	1,44997E-001	0,00000E+000	7	...........	-32768,00
	48	1,225	1,47743E-001	-6,19073E-006	0,00000E+000	1,47998E-001	0,00000E+000	7	...........	-32768,00
	51	1,3	1,50746E-001	-6,15531E-006	0,00000E+000	1,50998E-001	0,00000E+000	7	...........	-32768,00
	54	1,375	1,53749E-001	-6,10887E-006	0,00000E+000	1,53998E-001	0,00000E+000	7	...........	-32768,00
	57	1,45	1,56752E-001	-6,05874E-006	0,00000E+000	1,56998E-001	0,00000E+000	7	...........	-32768,00
	60	1,525	1,59754E-001	-6,02533E-006	0,00000E+000	1,59999E-001	0,00000E+000	7	...........	-32768,00
	63	1,6	1,62757E-001	-5,99258E-006	0,00000E+000	1,62999E-001	0,00000E+000	7	...........	-32768,00
	66	1,675	1,65760E-001	-5,93911E-006	0,00000E+000	1,65999E-001	0,00000E+000	7	...........	-32768,00
	69	1,75	1,68863E-001	-5,89100E-006	0,00000E+000	1,68999E-001	0,00000E+000	7	...........	-32768,00
	72	1,825	1,71866E-001	-5,87696E-006	0,00000E+000	1,71999E-001	0,00000E+000	7	...........	-32768,00
	75	1,9	1,74869E-001	-5,85591E-006	0,00000E+000	1,75000E-001	0,00000E+000	7	...........	-32768,00
	78	1,975	1,77772E-001	-5,80412E-006	0,00000E+000	1,78000E-001	0,00000E+000	7	...........	-32768,00
	81	2,05	1,80775E-001	-5,77839E-006	0,00000E+000	1,81000E-001	0,00000E+000	7	...........	-32768,00
	84	2,125	1,83778E-001	-5,75399E-006	0,00000E+000	1,84000E-001	0,00000E+000	7	...........	-32768,00
	87	2,2	1,86780E-001	-5,72492E-006	0,00000E+000	1,87001E-001	0,00000E+000	7	...........	-32768,00
	90	2,275	1,89783E-001	-5,69050E-006	0,00000E+000	1,90001E-001	0,00000E+000	7	...........	-32768,00
	93	2,35	1,92786E-001	-5,66745E-006	0,00000E+000	1,93001E-001	0,00000E+000	7	...........	-32768,00
	96	2,425	1,95789E-001	-5,63637E-006	0,00000E+000	1,96001E-001	0,00000E+000	7	...........	-32768,00
	99	2,5	1,98792E-001	-5,60496E-006	0,00000E+000	1,99002E-001	0,00000E+000	7	...........	-32768,00
	102	2,575	2,01795E-001	-5,57789E-006	0,00000E+000	2,02002E-001	0,00000E+000	7	...........	-32768,00
	105	2,65	2,04698E-001	-5,55985E-006	0,00000E+000	2,05002E-001	0,00000E+000	7	...........	-32768,00
	108	2,725	2,07901E-001	-5,52576E-006	0,00000E+000	2,08002E-001	0,00000E+000	7	...........	-32768,00
	111	2,8	2,10803E-001	-5,50438E-006	0,00000E+000	2,11003E-001	0,00000E+000	7	...........	-32768,00
	114	2,875	2,13806E-001	-5,48065E-006	0,00000E+000	2,14003E-001	0,00000E+000	7	...........	-32768,00
	117	2,95	2,16809E-001	-5,46929E-006	0,00000E+000	2,17003E-001	0,00000E+000	7	...........	-32768,00
	120	3,025	2,19712E-001	-5,43320E-006	0,00000E+000	2,20003E-001	0,00000E+000	7	...........	-32768,00
	123	3,1	2,22815E-001	-5,41181E-006	0,00000E+000	2,23004E-001	0,00000E+000	7	...........	-32768,00
	126	3,175	2,25818E-001	-5,39979E-006	0,00000E+000	2,26004E-001	0,00000E+000	7	...........	-32768,00
	129	3,25	2,28721E-001	-5,38007E-006	0,00000E+000	2,29004E-001	0,00000E+000	7	...........	-32768,00
	132	3,325	2,31824E-001	-5,33897E-006	0,00000E+000	2,32004E-001	0,00000E+000	7	...........	-32768,00
	135	3,4	2,34827E-001	-5,31959E-006	0,00000E+000	2,35005E-001	0,00000E+000	7	...........	-32768,00
	138	3,475	2,37729E-001	-5,29720E-006	0,00000E+000	2,38005E-001	0,00000E+000	7	...........	-32768,00
	141	3,55	2,40832E-001	-5,27982E-006	0,00000E+000	2,41005E-001	0,00000E+000	7	...........	-32768,00
	144	3,625	2,43835E-001	-5,26144E-006	0,00000E+000	2,44005E-001	0,00000E+000	7	...........	-32768,00
	147	3,7	2,46838E-001	-5,24006E-006	0,00000E+000	2,47005E-001	0,00000E+000	7	...........	-32768,00
	150	3,775	2,49841E-001	-5,21600E-006	0,00000E+000	2,50006E-001	0,00000E+000	7	...........	-32768,00
	153	3,85	2,52744E-001	-5,20664E-006	0,00000E+000	2,53006E-001	0,00000E+000	7	...........	-32768,00
	156	3,925	2,55947E-001	-5,16922E-006	0,00000E+000	2,56006E-001	0,00000E+000	7	...........	-32768,00
	159	4	2,58850E-001	-5,16320E-006	0,00000E+000	2,58994E-001	0,00000E+000	7	...........	-32768,00
	162	4,075	2,61853E-001	-5,13547E-006	0,00000E+000	2,61994E-001	0,00000E+000	7	...........	-32768,00
	165	4,15	2,64955E-001	-5,11041E-006	0,00000E+000	2,64994E-001	0,00000E+000	7	...........	-32768,00
	168	4,225	2,67858E-001	-5,08067E-006	0,00000E+000	2,67995E-001	0,00000E+000	7	...........	-32768,00
	171	4,3	2,70861E-001	-5,04959E-006	0,00000E+000	2,70995E-001	0,00000E+000	7	...........	-32768,00
	174	4,375	2,73764E-001	-5,02586E-006	0,00000E+000	2,73995E-001	0,00000E+000	7	...........	-32768,00
	177	4,45	2,76867E-001	-5,02286E-006	0,00000E+000	2,76995E-001	0,00000E+000	7	...........	-32768,00
	180	4,525	2,79870E-001	-4,98744E-006	0,00000E+000	2,79996E-001	0,00000E+000	7	...........	-32768,00
	183	4,6	2,82873E-001	-4,96805E-006	0,00000E+000	2,82996E-001	0,00000E+000	7	...........	-32768,00
	186	4,675	2,85776E-001	-4,93832E-006	0,00000E+000	2,85996E-001	0,00000E+000	7	...........	-32768,00
	189	4,75	2,88778E-001	-4,90891E-006	0,00000E+000	2,88996E-001	0,00000E+000	7	...........	-32768,00
	192	4,825	2,91881E-001	-4,87148E-006	0,00000E+000	2,91997E-001	0,00000E+000	7	...........	-32768,00
	195	4,9	2,94784E-001	-4,85678E-006	0,00000E+000	2,94997E-001	0,00000E+000	7	...........	-32768,00
	198	4,975	2,97887E-001	-4,82905E-006	0,00000E+000	2,97997E-001	0,00000E+000	7	...........	-32768,00
	201	5,05	3,00890E-001	-4,80198E-006	0,00000E+000	3,00997E-001	0,00000E+000	7	...........	-32768,00
	204	5,125	3,03893E-001	-4,75520E-006	0,00000E+000	3,03998E-001	0,00000E+000	7	...........	-32768,00
	207	5,2	3,06796E-001	-4,73314E-006	0,00000E+000	3,06998E-001	0,00000E+000	7	...........	-32768,00
	210	5,275	3,09899E-001	-4,68536E-006	0,00000E+000	3,09998E-001	0,00000E+000	7	...........	-32768,00
	213	5,35	3,12902E-001	-4,66163E-006	0,00000E+000	3,12998E-001	0,00000E+000	7	...........	-32768,00
	216	5,425	3,15904E-001	-4,61452E-006	0,00000E+000	3,15998E-001	0,00000E+000	7	...........	-32768,00
	219	5,5	3,18807E-001	-4,57742E-006	0,00000E+000	3,18999E-001	0,00000E+000	7	...........	-32768,00
	222	5,575	3,21910E-001	-4,52998E-006	0,00000E+000	3,21999E-001	0,00000E+000	7	...........	-32768,00
	225	5,65	3,24913E-001	-4,48687E-006	0,00000E+000	3,24999E-001	0,00000E+000	7	...........	-32768,00
	228	5,725	3,27716E-001	-4,42171E-006	0,00000E+000	3,27999E-001	0,00000E+000	7	...........	-32768,00
	231	5,8	3,30819E-001	-4,37259E-006	0,00000E+000	3,31000E-001	0,00000E+000	7	...........	-32768,00
	234	5,875	3,33822E-001	-4,31144E-006	0,00000E+000	3,34000E-001	0,00000E+000	7	...........	-32768,00
	237	5,95	3,36825E-001	-4,26866E-006	0,00000E+000	3,37000E-001	0,00000E+000	7	...........	-32768,00
	240	6,025	3,39827E-001	-4,18345E-006	0,00000E+000	3,40000E-001	0,00000E+000	7	...........	-32768,00
	243	6,1	3,42830E-001	-4,11128E-006	0,00000E+000	3,43001E-001	0,00000E+000	7	...........	-32768,00
	246	6,175	3,45933E-001	-4,02673E-006	0,00000E+000	3,46001E-001	0,00000E+000	7	...........	-32768,00
	249	6,25	3,48836E-001	-3,94787E-006	0,00000E+000	3,49001E-001	0,00000E+000	7	...........	-32768,00
	252	6,325	3,51839E-001	-3,85832E-006	0,00000E+000	3,52001E-001	0,00000E+000	7	...........	-32768,00
	255	6,4	3,54742E-001	-3,75640E-006	0,00000E+000	3,55002E-001	0,00000E+000	7	...........	-32768,00
	258	6,475	3,57845E-001	-3,64112E-006	0,00000E+000	3,58002E-001	0,00000E+000	7	...........	-32768,00
	261	6,55	3,60748E-001	-3,53586E-006	0,00000E+000	3,61002E-001	0,00000E+000	7	...........	-32768,00
	264	6,625	3,63851E-001	-3,40754E-006	0,00000E+000	3,64002E-001	0,00000E+000	7	...........	-32768,00
	267	6,7	3,66954E-001	-3,28658E-006	0,00000E+000	3,67003E-001	0,00000E+000	7	...........	-32768,00
	270	6,775	3,69756E-001	-3,15158E-006	0,00000E+000	3,70003E-001	0,00000E+000	7	...........	-32768,00
	273	6,85	3,72859E-001	-3,00288E-006	0,00000E+000	3,73003E-001	0,00000E+000	7	...........	-32768,00
	276	6,925	3,75862E-001	-2,83413E-006	0,00000E+000	3,76003E-001	0,00000E+000	7	...........	-32768,00
	279	7	3,78765E-001	-2,65970E-006	0,00000E+000	3,79004E-001	0,00000E+000	7	...........	-32768,00
	282	7,075	3,81768E-001	-2,49730E-006	0,00000E+000	3,82004E-001	0,00000E+000	7	...........	-32768,00
	285	7,15	3,84871E-001	-2,30416E-006	0,00000E+000	3,85004E-001	0,00000E+000	7	...........	-32768,00
	288	7,225	3,87874E-001	-2,09664E-006	0,00000E+000	3,88004E-001	0,00000E+000	7	...........	-32768,00
	291	7,3	3,90776E-001	-1,90384E-006	0,00000E+000	3,91005E-001	0,00000E+000	7	...........	-32768,00
	294	7,375	3,93879E-001	-1,67327E-006	0,00000E+000	3,94005E-001	0,00000E+000	7	...........	-32768,00
	297	7,45	3,96782E-001	-1,47177E-006	0,00000E+000	3,97005E-001	0,00000E+000	7	...........	-32768,00
	300	7,525	3,99785E-001	-1,24020E-006	0,00000E+000	4,00005E-001	0,00000E+000	7	...........	-32768,00
	303	7,6	4,02788E-001	-1,02834E-006	0,00000E+000	4,03005E-001	0,00000E+000	7	...........	-32768,00
	306	7,675	4,05891E-001	-7,91093E-007	0,00000E+000	4,06006E-001	0,00000E+000	7	...........	-32768,00
	309	7,75	4,08794E-001	-5,68544E-007	0,00000E+000	4,09006E-001	0,00000E+000	7	...........	-32768,00
	312	7,825	4,11797E-001	-3,39313E-007	0,00000E+000	4,12006E-001	0,00000E+000	7	...........	-32768,00
	315	7,9	4,14799E-001	-1,15762E-007	0,00000E+000	4,14994E-001	0,00000E+000	7	...........	-32768,00
	318	7,975	4,17902E-001	1,14138E-007	0,00000E+000	4,17994E-001	0,00000E+000	7	...........	-32768,00
	321	8,05	4,20705E-001	3,36018E-007	0,00000E+000	4,20994E-001	0,00000E+000	7	...........	-32768,00
	324	8,125	4,23808E-001	5,57899E-007	0,00000E+000	4,23995E-001	0,00000E+000	7	...........	-32768,00
	327	8,2	4,26811E-001	7,78442E-007	0,00000E+000	4,26995E-001	0,00000E+000	7	...........	-32768,00
	330	8,275	4,29814E-001	1,00099E-006	0,00000E+000	4,29995E-001	0,00000E+000	7	...........	-32768,00
	333	8,35	4,32917E-001	1,23824E-006	0,00000E+000	4,32995E-001	0,00000E+000	7	...........	-32768,00
	336	8,425	4,35920E-001	1,47516E-006	0,00000E+000	4,35996E-001	0,00000E+000	7	...........	-32768,00
	339	8,5	4,38823E-001	1,73112E-006	0,00000E+000	4,38996E-001	0,00000E+000	7	...........	-32768,00
	342	8,575	4,41825E-001	1,99043E-006	0,00000E+000	4,41996E-001	0,00000E+000	7	...........	-32768,00
	345	8,65	4,44728E-001	2,28349E-006	0,00000E+000	4,44996E-001	0,00000E+000	7	...........	-32768,00
	348	8,725	4,47831E-001	2,59860E-006	0,00000E+000	4,47997E-001	0,00000E+000	7	...........	-32768,00
	351	8,8	4,50834E-001	2,93643E-006	0,00000E+000	4,50997E-001	0,00000E+000	7	...........	-32768,00
	354	8,875	4,53837E-001	3,30701E-006	0,00000E+000	4,53997E-001	0,00000E+000	7	...........	-32768,00
	357	8,95	4,56840E-001	3,71067E-006	0,00000E+000	4,56997E-001	0,00000E+000	7	...........	-32768,00
	360	9,025	4,59743E-001	4,15476E-006	0,00000E+000	4,59998E-001	0,00000E+000	7	...........	-32768,00
	363	9,1	4,62846E-001	4,64397E-006	0,00000E+000	4,62998E-001	0,00000E+000	7	...........	-32768,00
	366	9,175	4,65748E-001	5,18698E-006	0,00000E+000	4,65998E-001	0,00000E+000	7	...........	-32768,00
	369	9,25	4,68851E-001	5,77476E-006	0,00000E+000	4,68998E-001	0,00000E+000	7	...........	-32768,00
	372	9,325	4,71854E-001	6,39829E-006	0,00000E+000	4,71999E-001	0,00000E+000	7	...........	-32768,00
	375	9,4	4,74857E-001	7,10737E-006	0,00000E+000	4,74999E-001	0,00000E+000	7	...........	-32768,00
	378	9,475	4,77860E-001	7,87995E-006	0,00000E+000	4,77999E-001	0,00000E+000	7	...........	-32768,00
	381	9,55	4,80763E-001	8,70465E-006	0,00000E+000	4,80999E-001	0,00000E+000	7	...........	-32768,00
	384	9,625	4,83766E-001	9,58982E-006	0,00000E+000	4,83999E-001	0,00000E+000	8	...........	-32768,00
	387	9,7	4,86869E-001	1,05653E-005	0,00000E+000	4,87000E-001	0,00000E+000	8	...........	-32768,00
	390	9,775	4,89771E-001	1,16076E-005	0,00000E+000	4,90000E-001	0,00000E+000	8	...........	-32768,00
	393	9,85	4,92874E-001	1,27101E-005	0,00000E+000	4,93000E-001	0,00000E+000	8	...........	-32768,00
	396	9,925	4,95877E-001	1,39060E-005	0,00000E+000	4,96000E-001	0,00000E+000	8	...........	-32768,00
	399	10	4,98780E-001	1,51822E-005	0,00000E+000	4,99001E-001	0,00000E+000	8	...........	-32768,00
	402	10,075	5,01783E-001	1,65285E-005	0,00000E+000	5,02001E-001	0,00000E+000	8	...........	-32768,00
	405	10,15	5,04886E-001	1,79550E-005	0,00000E+000	5,05001E-001	0,00000E+000	8	...........	-32768,00
	408	10,225	5,07889E-001	1,94784E-005	0,00000E+000	5,08001E-001	0,00000E+000	8	...........	-32768,00
	411	10,3	5,10792E-001	2,10819E-005	0,00000E+000	5,11002E-001	0,00000E+000	8	...........	-32768,00
	414	10,375	5,13895E-001	2,27724E-005	0,00000E+000	5,14002E-001	0,00000E+000	8	...........	-32768,00
	417	10,45	5,16898E-001	2,45764E-005	0,00000E+000	5,17002E-001	0,00000E+000	8	...........	-32768,00
	420	10,525	5,19901E-001	2,64372E-005	0,00000E+000	5,20002E-001	0,00000E+000	8	...........	-32768,00
	423	10,6	5,22903E-001	2,83982E-005	0,00000E+000	5,23003E-001	0,00000E+000	8	...........	-32768,00
	426	10,675	5,25806E-001	3,04995E-005	0,00000E+000	5,26003E-001	0,00000E+000	8	...........	-32768,00
	429	10,75	5,29009E-001	3,26609E-005	0,00000E+000	5,29003E-001	0,00000E+000	8	...........	-32768,00
	432	10,825	5,31912E-001	3,49360E-005	0,00000E+000	5,32003E-001	0,00000E+000	8	...........	-32768,00
	435	10,9	5,34815E-001	3,73079E-005	0,00000E+000	5,35004E-001	0,00000E+000	8	...........	-32768,00
	438	10,975	5,37818E-001	3,97867E-005	0,00000E+000	5,38004E-001	0,00000E+000	8	...........	-32768,00
	441	11,05	5,40921E-001	4,23491E-005	0,00000E+000	5,41004E-001	0,00000E+000	8	...........	-32768,00
	444	11,125	5,43924E-001	4,50217E-005	0,00000E+000	5,44004E-001	0,00000E+000	8	...........	-32768,00
	447	11,2	5,46826E-001	4,78112E-005	0,00000E+000	5,47005E-001	0,00000E+000	8	...........	-32768,00
	450	11,275	5,49929E-001	5,06876E-005	0,00000E+000	5,50005E-001	0,00000E+000	8	...........	-32768,00
	453	11,35	5,52932E-001	5,36575E-005	0,00000E+000	5,53005E-001	0,00000E+000	8	...........	-32768,00
	456	11,425	5,55935E-001	5,67376E-005	0,00000E+000	5,56005E-001	0,00000E+000	8	...........	-32768,00
	459	11,5	5,58938E-001	5,98746E-005	0,00000E+000	5,59005E-001	0,00000E+000	8	...........	-32768,00
	462	11,575	5,61941E-001	6,31118E-005	0,00000E+000	5,62006E-001	0,00000E+000	8	...........	-32768,00
	465	11,65	5,64944E-001	6,63857E-005	0,00000E+000	5,65006E-001	0,00000E+000	8	...........	-32768,00
	468	11,725	5,67847E-001	6,96997E-005	0,00000E+000	5,68006E-001	0,00000E+000	8	...........	-32768,00
	471	11,8	5,70849E-001	7,30103E-005	0,00000E+000	5,70994E-001	0,00000E+000	8	...........	-32768,00
	474	11,875	5,73752E-001	7,64246E-005	0,00000E+000	5,73994E-001	0,00000E+000	8	...........	-32768,00
	477	11,95	5,76855E-001	7,98221E-005	0,00000E+000	5,76994E-001	0,00000E+000	8	...........	-32768,00
	480	12,025	5,79758E-001	8,32464E-005	0,00000E+000	5,79995E-001	0,00000E+000	8	...........	-32768,00
	483	12,1	5,82961E-001	8,66105E-005	0,00000E+000	5,82995E-001	0,00000E+000	8	...........	-32768,00
	486	12,175	5,85964E-001	8,98978E-005	0,00000E+000	5,85995E-001	0,00000E+000	8	...........	-32768,00
	489	12,25	5,88867E-001	9,30171E-005	0,00000E+000	5,88995E-001	0,00000E+000	9	...........	-32768,00
	492	12,325	5,91970E-001	9,61549E-005	0,00000E+000	5,91996E-001	0,00000E+000	9	...........	-32768,00
	495	12,4	5,94973E-001	9,91258E-005	0,00000E+000	5,94996E-001	0,00000E+000	9	...........	-32768,00
	498	12,475	5,97975E-001	1,01930E-004	0,00000E+000	5,97996E-001	0,00000E+000	9	...........	-32768,00
	501	12,55	6,00878E-001	1,04433E-004	0,00000E+000	6,00996E-001	0,00000E+000	9	...........	-32768,00
	504	12,625	6,03881E-001	1,06603E-004	0,00000E+000	6,03997E-001	0,00000E+000	9	...........	-32768,00
	507	12,7	6,06984E-001	1,08272E-004	0,00000E+000	6,06997E-001	0,00000E+000	9	...........	-32768,00
	510	12,775	6,09987E-001	1,09374E-004	0,00000E+000	6,09997E-001	0,00000E+000	9	...........	-32768,00
	513	12,85	6,12890E-001	1,09741E-004	0,00000E+000	6,12997E-001	0,00000E+000	9	...........	-32768,00
	516	12,925	6,15893E-001	1,09273E-004	0,00000E+000	6,15998E-001	0,00000E+000	9	...........	-32768,00
	519	13	6,18896E-001	1,07805E-004	0,00000E+000	6,18998E-001	0,00000E+000	9	...........	-32768,00
	522	13,075	6,21898E-001	1,05134E-004	0,00000E+000	6,21998E-001	0,00000E+000	9	...........	-32768,00
	525	13,15	6,24901E-001	1,01095E-004	0,00000E+000	6,24998E-001	0,00000E+000	9	...........	-32768,00
	528	13,225	6,27904E-001	9,58879E-005	0,00000E+000	6,27999E-001	0,00000E+000	9	...........	-32768,00
	531	13,3	6,30907E-001	8,91784E-005	0,00000E+000	6,30999E-001	0,00000E+000	9	...........	-32768,00
	534	13,375	6,33910E-001	8,02658E-005	0,00000E+000	6,33999E-001	0,00000E+000	9	...........	-32768,00
	537	13,45	6,36813E-001	6,86373E-005	0,00000E+000	6,36999E-001	0,00000E+000	8	...........	-32768,00
	540	13,525	6,39916E-001	5,11319E-005	0,00000E+000	6,40000E-001	0,00000E+000	8	...........	-32768,00
	543	13,6	6,42919E-001	3,28079E-005	0,00000E+000	6,43000E-001	0,00000E+000	8	...........	-32768,00
	546	13,675	6,45821E-001	2,57222E-005	0,00000E+000	6,46000E-001	0,00000E+000	8	...........	-32768,00
	549	13,75	6,48924E-001	2,19038E-005	0,00000E+000	6,49000E-001	0,00000E+000	8	...........	-32768,00
	552	13,825	6,51927E-001	1,94684E-005	0,00000E+000	6,52000E-001	0,00000E+000	8	...........	-32768,00
	555	13,9	6,54930E-001	1,73236E-005	0,00000E+000	6,55001E-001	0,00000E+000	8	...........	-32768,00
	558	13,975	6,57933E-001	1,61377E-005	0,00000E+000	6,58001E-001	0,00000E+000	8	...........	-32768,00
	561	14,05	6,60936E-001	1,50553E-005	0,00000E+000	6,61001E-001	0,00000E+000	8	...........	-32768,00
	564	14,125	6,63939E-001	1,40597E-005	0,00000E+000	6,64001E-001	0,00000E+000	8	...........	-32768,00
	567	14,2	6,66842E-001	1,31711E-005	0,00000E+000	6,67002E-001	0,00000E+000	8	...........	-32768,00
	570	14,275	6,69945E-001	1,23526E-005	0,00000E+000	6,70002E-001	0,00000E+000	8	...........	-32768,00
	573	14,35	6,72847E-001	1,17713E-005	0,00000E+000	6,73002E-001	0,00000E+000	8	...........	-32768,00
	576	14,425	6,75950E-001	1,12268E-005	0,00000E+000	6,76002E-001	0,00000E+000	8	...........	-32768,00
	579	14,5	6,78853E-001	1,07691E-005	0,00000E+000	6,79003E-001	0,00000E+000	8	...........	-32768,00
	582	14,575	6,81956E-001	1,03782E-005	0,00000E+000	6,82003E-001	0,00000E+000	8	...........	-32768,00
	585	14,65	6,84859E-001	1,00174E-005	0,00000E+000	6,85003E-001	0,00000E+000	8	...........	-32768,00
	588	14,725	6,87962E-001	9,67334E-006	0,00000E+000	6,88003E-001	0,00000E+000	8	...........	-32768,00
	591	14,8	6,90865E-001	9,41276E-006	0,00000E+000	6,91004E-001	0,00000E+000	8	...........	-32768,00
	594	14,875	6,93868E-001	9,12880E-006	0,00000E+000	6,94004E-001	0,00000E+000	8	...........	-32768,00
	597	14,95	6,96871E-001	8,91165E-006	0,00000E+000	6,97004E-001	0,00000E+000	8	...........	-32768,00
	600	15,025	6,99873E-001	8,68782E-006	0,00000E+000	7,00004E-001	0,00000E+000	8	...........	-32768,00
	603	15,1	7,02876E-001	8,48404E-006	0,00000E+000	7,03005E-001	0,00000E+000	8	...........	-32768,00
	606	15,175	7,05879E-001	8,29027E-006	0,00000E+000	7,06005E-001	0,00000E+000	8	...........	-32768,00
	609	15,25	7,08982E-001	8,12324E-006	0,00000E+000	7,09005E-001	0,00000E+000	8	...........	-32768,00
	612	15,325	7,11885E-001	7,94878E-006	0,00000E+000	7,12005E-001	0,00000E+000	7	...........	-32768,00
	615	15,4	7,14988E-001	7,82414E-006	0,00000E+000	7,15006E-001	0,00000E+000	7	...........	-32768,00
	618	15,475	7,17991E-001	7,66408E-006	0,00000E+000	7,18006E-001	0,00000E+000	7	...........	-32768,00
	621	15,55	7,20793E-001	7,52039E-006	0,00000E+000	7,21006E-001	0,00000E+000	7	...........	-32768,00
	624	15,625	7,23896E-001	7,41647E-006	0,00000E+000	7,24006E-001	0,00000E+000	7	...........	-32768,00
	627	15,7	7,26799E-001	7,30352E-006	0,00000E+000	7,26994E-001	0,00000E+000	7	...........	-32768,00
	630	15,775	7,30002E-001	7,18657E-006	0,00000E+000	7,29994E-001	0,00000E+000	7	...........	-32768,00
	633	15,85	7,32905E-001	7,08632E-006	0,00000E+000	7,32994E-001	0,00000E+000	7	...........	-32768,00
	636	15,925	7,35908E-001	6,98708E-006	0,00000E+000	7,35995E-001	0,00000E+000	7	...........	-32768,00
	639	16	7,38911E-001	6,91624E-006	0,00000E+000	7,38995E-001	0,00000E+000	7	...........	-32768,00
	642	16,075	7,41914E-001	6,82702E-006	0,00000E+000	7,41995E-001	0,00000E+000	7	...........	-32768,00
	645	16,15	7,44917E-001	6,73479E-006	0,00000E+000	7,44995E-001	0,00000E+000	7	...........	-32768,00
	648	16,225	7,47920E-001	6,66562E-006	0,00000E+000	7,47996E-001	0,00000E+000	7	...........	-32768,00
	651	16,3	7,50922E-001	6,59077E-006	0,00000E+000	7,50996E-001	0,00000E+000	7	...........	-32768,00
	654	16,375	7,53925E-001	6,51525E-006	0,00000E+000	7,53996E-001	0,00000E+000	7	...........	-32768,00
	657	16,45	7,56928E-001	6,47181E-006	0,00000E+000	7,56996E-001	0,00000E+000	7	...........	-32768,00
	660	16,525	7,60031E-001	6,35987E-006	0,00000E+000	7,59997E-001	0,00000E+000	7	...........	-32768,00
	663	16,6	7,62934E-001	6,34015E-006	0,00000E+000	7,62997E-001	0,00000E+000	7	...........	-32768,00
	666	16,675	7,65837E-001	6,26697E-006	0,00000E+000	7,65997E-001	0,00000E+000	7	...........	-32768,00
	669	16,75	7,68940E-001	6,24291E-006	0,00000E+000	7,68997E-001	0,00000E+000	7	...........	-32768,00
	672	16,825	7,71943E-001	6,17140E-006	0,00000E+000	7,71998E-001	0,00000E+000	7	...........	-32768,00
	675	16,9	7,74845E-001	6,13431E-006	0,00000E+000	7,74998E-001	0,00000E+000	7	...........	-32768,00
	678	16,975	7,77948E-001	6,07884E-006	0,00000E+000	7,77998E-001	0,00000E+000	7	...........	-32768,00
	681	17,05	7,80951E-001	6,03841E-006	0,00000E+000	7,80998E-001	0,00000E+000	7	...........	-32768,00
	684	17,125	7,83954E-001	5,97625E-006	0,00000E+000	7,83999E-001	0,00000E+000	7	...........	-32768,00
	687	17,2	7,86957E-001	5,96155E-006	0,00000E+000	7,86999E-001	0,00000E+000	7	...........	-32768,00
	690	17,275	7,89960E-001	5,93047E-006	0,00000E+000	7,89999E-001	0,00000E+000	7	...........	-32768,00
	693	17,35	7,92963E-001	5,87367E-006	0,00000E+000	7,92999E-001	0,00000E+000	7	...........	-32768,00
	696	17,425	7,95966E-001	5,83691E-006	0,00000E+000	7,96000E-001	0,00000E+000	7	...........	-32768,00
	699	17,5	7,98868E-001	5,80383E-006	0,00000E+000	7,99000E-001	0,00000E+000	7	...........	-32768,00
	702	17,575	7,97868E-001	5,56691E-006	0,00000E+000	7,98000E-001	0,00000E+000	7	...........	-32768,00
	705	17,65	7,94965E-001	5,35539E-006	0,00000E+000	7,94999E-001	0,00000E+000	7	...........	-32768,00
	708	17,725	7,91962E-001	5,14955E-006	0,00000E+000	7,91999E-001	0,00000E+000	7	...........	-32768,00
	711	17,8	7,88959E-001	4,98849E-006	0,00000E+000	7,88999E-001	0,00000E+000	7	...........	-32768,00
	714	17,875	7,85956E-001	4,80871E-006	0,00000E+000	7,85999E-001	0,00000E+000	7	...........	-32768,00
	717	17,95	7,83053E-001	4,66435E-006	0,00000E+000	7,82998E-001	0,00000E+000	7	...........	-32768,00
	720	18,025	7,79850E-001	4,47789E-006	0,00000E+000	7,79998E-001	0,00000E+000	7	...........	-32768,00
	723	18,1	7,76947E-001	4,34657E-006	0,00000E+000	7,76998E-001	0,00000E+000	7	...........	-32768,00
	726	18,175	7,73944E-001	4,22627E-006	0,00000E+000	7,73998E-001	0,00000E+000	7	...........	-32768,00
	729	18,25	7,70942E-001	4,09395E-006	0,00000E+000	7,70998E-001	0,00000E+000	7	...........	-32768,00
	732	18,325	7,67939E-001	3,95260E-006	0,00000E+000	7,67997E-001	0,00000E+000	7	...........	-32768,00
	735	18,4	7,64936E-001	3,83598E-006	0,00000E+000	7,64997E-001	0,00000E+000	7	...........	-32768,00
	738	18,475	7,61833E-001	3,70766E-006	0,00000E+000	7,61997E-001	0,00000E+000	7	...........	-32768,00
	741	18,55	7,58930E-001	3,62112E-006	0,00000E+000	7,58997E-001	0,00000E+000	7	...........	-32768,00
	744	18,625	7,55927E-001	3,50917E-006	0,00000E+000	7,55996E-001	0,00000E+000	7	...........	-32768,00
	747	18,7	7,52924E-001	3,42664E-006	0,00000E+000	7,52996E-001	0,00000E+000	7	...........	-32768,00
	750	18,775	7,49921E-001	3,31904E-006	0,00000E+000	7,49996E-001	0,00000E+000	7	...........	-32768,00
	753	18,85	7,46919E-001	3,24586E-006	0,00000E+000	7,46996E-001	0,00000E+000	7	...........	-32768,00
	756	18,925	7,43916E-001	3,15630E-006	0,00000E+000	7,43995E-001	0,00000E+000	7	...........	-32768,00
	759	19	7,40813E-001	3,07744E-006	0,00000E+000	7,40995E-001	0,00000E+000	7	...........	-32768,00
	762	19,075	7,37910E-001	3,00393E-006	0,00000E+000	7,37995E-001	0,00000E+000	7	...........	-32768,00
	765	19,15	7,34907E-001	2,93342E-006	0,00000E+000	7,34995E-001	0,00000E+000	7	...........	-32768,00
	768	19,225	7,31904E-001	2,86926E-006	0,00000E+000	7,31994E-001	0,00000E+000	7	...........	-32768,00
	771	19,3	7,28901E-001	2,80043E-006	0,00000E+000	7,28994E-001	0,00000E+000	7	...........	-32768,00
	774	19,375	7,25898E-001	2,73159E-006	0,00000E+000	7,25994E-001	0,00000E+000	7	...........	-32768,00
	777	19,45	7,22896E-001	2,67345E-006	0,00000E+000	7,23006E-001	0,00000E+000	7	...........	-32768,00
	780	19,525	7,19893E-001	2,60528E-006	0,00000E+000	7,20006E-001	0,00000E+000	7	...........	-32768,00
	783	19,6	7,16990E-001	2,55114E-006	0,00000E+000	7,17006E-001	0,00000E+000	7	...........	-32768,00
	786	19,675	7,13887E-001	2,48899E-006	0,00000E+000	7,14005E-001	0,00000E+000	7	...........	-32768,00
	789	19,75	7,10884E-001	2,43686E-006	0,00000E+000	7,11005E-001	0,00000E+000	7	...........	-32768,00
	792	19,825	7,07981E-001	2,37772E-006	0,00000E+000	7,08005E-001	0,00000E+000	7	...........	-32768,00
	795	19,9	7,04878E-001	2,32525E-006	0,00000E+000	7,05005E-001	0,00000E+000	7	...........	-32768,00
	798	19,975	7,01875E-001	2,26745E-006	0,00000E+000	7,02004E-001	0,00000E+000	7	...........	-32768,00
	801	20,05	6,98872E-001	2,23704E-006	0,00000E+000	6,99004E-001	0,00000E+000	7	...........	-32768,00
	804	20,125	6,95870E-001	2,16954E-006	0,00000E+000	6,96004E-001	0,00000E+000	7	...........	-32768,00
	807	20,2	6,92867E-001	2,12810E-006	0,00000E+000	6,93004E-001	0,00000E+000	7	...........	-32768,00
	810	20,275	6,89864E-001	2,08132E-006	0,00000E+000	6,90004E-001	0,00000E+000	7	...........	-32768,00
	813	20,35	6,86861E-001	2,04958E-006	0,00000E+000	6,87003E-001	0,00000E+000	7	...........	-32768,00
	816	20,425	6,83958E-001	1,99010E-006	0,00000E+000	6,84003E-001	0,00000E+000	7	...........	-32768,00
	819	20,5	6,80955E-001	1,94933E-006	0,00000E+000	6,81003E-001	0,00000E+000	7	...........	-32768,00
	822	20,575	6,77852E-001	1,91090E-006	0,00000E+000	6,78003E-001	0,00000E+000	7	...........	-32768,00
	825	20,65	6,74949E-001	1,86813E-006	0,00000E+000	6,75002E-001	0,00000E+000	7	...........	-32768,00
	828	20,725	6,71746E-001	1,83170E-006	0,00000E+000	6,72002E-001	0,00000E+000	7	...........	-32768,00
	831	20,8	6,68844E-001	1,78927E-006	0,00000E+000	6,69002E-001	0,00000E+000	7	...........	-32768,00
	834	20,875	6,65941E-001	1,76153E-006	0,00000E+000	6,66002E-001	0,00000E+000	7	...........	-32768,00
	837	20,95	6,62938E-001	1,72277E-006	0,00000E+000	6,63001E-001	0,00000E+000	7	...........	-32768,00
	840	21,025	6,59835E-001	1,68067E-006	0,00000E+000	6,60001E-001	0,00000E+000	7	...........	-32768,00
	843	21,1	6,56832E-001	1,65059E-006	0,00000E+000	6,57001E-001	0,00000E+000	7	...........	-32768,00
	846	21,175	6,53929E-001	1,61250E-006	0,00000E+000	6,54001E-001	0,00000E+000	7	...........	-32768,00
	849	21,25	6,50826E-001	1,58142E-006	0,00000E+000	6,51000E-001	0,00000E+000	7	...........	-32768,00
	852	21,325	6,47923E-001	1,53297E-006	0,00000E+000	6,48000E-001	0,00000E+000	7	...........	-32768,00
	855	21,4	6,44921E-001	1,49855E-006	0,00000E+000	6,45000E-001	0,00000E+000	7	...........	-32768,00
	858	21,475	6,41918E-001	1,46513E-006	0,00000E+000	6,42000E-001	0,00000E+000	7	...........	-32768,00
	861	21,55	6,38815E-001	1,44843E-006	0,00000E+000	6,38999E-001	0,00000E+000	7	...........	-32768,00
	864	21,625	6,35912E-001	1,40565E-006	0,00000E+000	6,35999E-001	0,00000E+000	7	...........	-32768,00
	867	21,7	6,32809E-001	1,37023E-006	0,00000E+000	6,32999E-001	0,00000E+000	7	...........	-32768,00
	870	21,775	6,29906E-001	1,33582E-006	0,00000E+000	6,29999E-001	0,00000E+000	7	...........	-32768,00
	873	21,85	6,26803E-001	1,30407E-006	0,00000E+000	6,26998E-001	0,00000E+000	7	...........	-32768,00
	876	21,925	6,23900E-001	1,27667E-006	0,00000E+000	6,23998E-001	0,00000E+000	7	...........	-32768,00
	879	22	6,20897E-001	1,23223E-006	0,00000E+000	6,20998E-001	0,00000E+000	7	...........	-32768,00
	882	22,075	6,17895E-001	1,22588E-006	0,00000E+000	6,17998E-001	0,00000E+000	7	...........	-32768,00
	885	22,15	6,14792E-001	1,18678E-006	0,00000E+000	6,14998E-001	0,00000E+000	7	...........	-32768,00
	888	22,225	6,11889E-001	1,15303E-006	0,00000E+000	6,11997E-001	0,00000E+000	7	...........	-32768,00
	891	22,3	6,08786E-001	1,11928E-006	0,00000E+000	6,08997E-001	0,00000E+000	7	...........	-32768,00
	894	22,375	6,05883E-001	1,08887E-006	0,00000E+000	6,05997E-001	0,00000E+000	7	...........	-32768,00
	897	22,45	6,02880E-001	1,05546E-006	0,00000E+000	6,02997E-001	0,00000E+000	7	...........	-32768,00
	900	22,525	5,99877E-001	1,02171E-006	0,00000E+000	5,99996E-001	0,00000E+000	7	...........	-32768,00
	903	22,6	5,96974E-001	1,00199E-006	0,00000E+000	5,96996E-001	0,00000E+000	7	...........	-32768,00
	906	22,675	5,93872E-001	9,56214E-007	0,00000E+000	5,93996E-001	0,00000E+000	7	...........	-32768,00
	909	22,75	5,90869E-001	9,38838E-007	0,00000E+000	5,90996E-001	0,00000E+000	7	...........	-32768,00
	912	22,825	5,87766E-001	8,98405E-007	0,00000E+000	5,87995E-001	0,00000E+000	7	...........	-32768,00
	915	22,9	5,84863E-001	8,61313E-007	0,00000E+000	5,84995E-001	0,00000E+000	7	...........	-32768,00
	918	22,975	5,81860E-001	8,24556E-007	0,00000E+000	5,81995E-001	0,00000E+000	7	...........	-32768,00
	921	23,05	5,78857E-001	7,87465E-007	0,00000E+000	5,78995E-001	0,00000E+000	7	...........	-32768,00
	924	23,125	5,75754E-001	7,46363E-007	0,00000E+000	5,75994E-001	0,00000E+000	7	...........	-32768,00
	927	23,2	5,72851E-001	7,04594E-007	0,00000E+000	5,72994E-001	0,00000E+000	7	...........	-32768,00
	930	23,275	5,69748E-001	6,74854E-007	0,00000E+000	5,69994E-001	0,00000E+000	7	...........	-32768,00
	933	23,35	5,66946E-001	6,42106E-007	0,00000E+000	5,67006E-001	0,00000E+000	7	...........	-32768,00
	936	23,425	5,63843E-001	5,96661E-007	0,00000E+000	5,64006E-001	0,00000E+000	7	...........	-32768,00
	939	23,5	5,60940E-001	5,45201E-007	0,00000E+000	5,61006E-001	0,00000E+000	7	...........	-32768,00
	942	23,575	5,57837E-001	5,24817E-007	0,00000E+000	5,58005E-001	0,00000E+000	7	...........	-32768,00
	945	23,65	5,54934E-001	4,85387E-007	0,00000E+000	5,55005E-001	0,00000E+000	7	...........	-32768,00
	948	23,725	5,51831E-001	4,49298E-007	0,00000E+000	5,52005E-001	0,00000E+000	7	...........	-32768,00
	951	23,8	5,49028E-001	4,20226E-007	0,00000E+000	5,49005E-001	0,00000E+000	7	...........	-32768,00
	954	23,875	5,45825E-001	3,93493E-007	0,00000E+000	5,46004E-001	0,00000E+000	7	...........	-32768,00
	957	23,95	5,42822E-001	3,68098E-007	0,00000E+000	5,43004E-001	0,00000E+000	7	...........	-32768,00
	960	24,025	5,39920E-001	3,40697E-007	0,00000E+000	5,40004E-001	0,00000E+000	7	...........	-32768,00
	963	24,1	5,36917E-001	3,13964E-007	0,00000E+000	5,37004E-001	0,00000E+000	7	...........	-32768,00
	966	24,175	5,33814E-001	3,03271E-007	0,00000E+000	5,34003E-001	0,00000E+000	7	...........	-32768,00
	969	24,25	5,30811E-001	2,83890E-007	0,00000E+000	5,31003E-001	0,00000E+000	7	...........	-32768,00
	972	24,325	5,27908E-001	2,62838E-007	0,00000E+000	5,28003E-001	0,00000E+000	7	...........	-32768,00
	975	24,4	5,24805E-001	2,35103E-007	0,00000E+000	5,25003E-001	0,00000E+000	7	...........	-32768,00
	978	24,475	5,21802E-001	2,30759E-007	0,00000E+000	5,22003E-001	0,00000E+000	7	...........	-32768,00
	981	24,55	5,18799E-001	2,18395E-007	0,00000E+000	5,19002E-001	0,00000E+000	7	...........	-32768,00
	984	24,625	5,15796E-001	1,99014E-007	0,00000E+000	5,16002E-001	0,00000E+000	7	...........	-32768,00
	987	24,7	5,12794E-001	1,81304E-007	0,00000E+000	5,13002E-001	0,00000E+000	7	...........	-32768,00
	990	24,775	5,09791E-001	1,64930E-007	0,00000E+000	5,10002E-001	0,00000E+000	7	...........	-32768,00
	993	24,85	5,06788E-001	1,45549E-007	0,00000E+000	5,07001E-001	0,00000E+000	7	...........	-32768,00
	996	24,925	5,03785E-001	1,26836E-007	0,00000E+000	5,04001E-001	0,00000E+000	7	...........	-32768,00
	999	25	5,00882E-001	1,10797E-007	0,00000E+000	5,01001E-001	0,00000E+000	7	...........	-32768,00
	1002	25,075	4,97879E-001	9,70962E-008	0,00000E+000	4,98001E-001	0,00000E+000	7	...........	-32768,00
	1005	25,15	4,94776E-001	7,67126E-008	0,00000E+000	4,95000E-001	0,00000E+000	7	...........	-32768,00
	1008	25,225	4,91773E-001	6,66879E-008	0,00000E+000	4,92000E-001	0,00000E+000	7	...........	-32768,00
	1011	25,3	4,88871E-001	3,32722E-008	0,00000E+000	4,89000E-001	0,00000E+000	7	...........	-32768,00
	1014	25,375	4,85868E-001	1,89035E-008	0,00000E+000	4,86000E-001	0,00000E+000	7	...........	-32768,00
	1017	25,45	4,82865E-001	-1,28414E-008	0,00000E+000	4,82999E-001	0,00000E+000	7	...........	-32768,00
	1020	25,525	4,79862E-001	-2,68760E-008	0,00000E+000	4,79999E-001	0,00000E+000	7	...........	-32768,00
	1023	25,6	4,76859E-001	-7,43263E-008	0,00000E+000	4,76999E-001	0,00000E+000	7	...........	-32768,00
	1026	25,675	4,73856E-001	-9,83856E-008	0,00000E+000	4,73999E-001	0,00000E+000	7	...........	-32768,00
	1029	25,75	4,70753E-001	-1,32804E-007	0,00000E+000	4,70998E-001	0,00000E+000	7	...........	-32768,00
	1032	25,825	4,67850E-001	-1,57866E-007	0,00000E+000	4,67998E-001	0,00000E+000	7	...........	-32768,00
	1035	25,9	4,64848E-001	-2,16009E-007	0,00000E+000	4,64998E-001	0,00000E+000	7	...........	-32768,00
	1038	25,975	4,61845E-001	-2,58447E-007	0,00000E+000	4,61998E-001	0,00000E+000	7	...........	-32768,00
	1041	26,05	4,58842E-001	-3,07568E-007	0,00000E+000	4,58997E-001	0,00000E+000	7	...........	-32768,00
	1044	26,125	4,55939E-001	-3,74399E-007	0,00000E+000	4,55997E-001	0,00000E+000	7	...........	-32768,00
	1047	26,2	4,52936E-001	-4,79659E-007	0,00000E+000	4,52997E-001	0,00000E+000	7	...........	-32768,00
	1050	26,275	4,49933E-001	-6,67455E-007	0,00000E+000	4,49997E-001	0,00000E+000	7	...........	-32768,00
	1053	26,35	4,46930E-001	-1,14363E-006	0,00000E+000	4,46997E-001	0,00000E+000	7	...........	-32768,00
	1056	26,425	4,43827E-001	-2,28177E-006	0,00000E+000	4,43996E-001	0,00000E+000	7	...........	-32768,00
	1059	26,5	4,40824E-001	-4,35755E-006	0,00000E+000	4,40996E-001	0,00000E+000	7	...........	-32768,00
	1062	26,575	4,37822E-001	-7,27140E-006	0,00000E+000	4,37996E-001	0,00000E+000	7	...........	-32768,00
	1065	26,65	4,34819E-001	-1,06484E-005	0,00000E+000	4,34996E-001	0,00000E+000	8	...........	-32768,00
	1068	26,725	4,31816E-001	-1,40492E-005	0,00000E+000	4,31995E-001	0,00000E+000	8	...........	-32768,00
	1071	26,8	4,28813E-001	-1,72764E-005	0,00000E+000	4,28995E-001	0,00000E+000	8	...........	-32768,00
	1074	26,875	4,25910E-001	-2,02630E-005	0,00000E+000	4,25995E-001	0,00000E+000	8	...........	-32768,00
	1077	26,95	4,22707E-001	-2,29957E-005	0,00000E+000	4,22995E-001	0,00000E+000	8	...........	-32768,00
	1080	27,025	4,19904E-001	-2,54612E-005	0,00000E+000	4,19994E-001	0,00000E+000	8	...........	-32768,00
	1083	27,1	4,16801E-001	-2,76995E-005	0,00000E+000	4,16994E-001	0,00000E+000	8	...........	-32768,00
	1086	27,175	4,13799E-001	-2,97106E-005	0,00000E+000	4,13994E-001	0,00000E+000	8	...........	-32768,00
	1089	27,25	4,10896E-001	-3,15012E-005	0,00000E+000	4,11006E-001	0,00000E+000	8	...........	-32768,00
	1092	27,325	4,07793E-001	-3,30781E-005	0,00000E+000	4,08006E-001	0,00000E+000	8	...........	-32768,00
	1095	27,4	4,04790E-001	-3,44678E-005	0,00000E+000	4,05006E-001	0,00000E+000	8	...........	-32768,00
	1098	27,475	4,01787E-001	-3,56237E-005	0,00000E+000	4,02005E-001	0,00000E+000	8	...........	-32768,00
	1101	27,55	3,98884E-001	-3,65892E-005	0,00000E+000	3,99005E-001	0,00000E+000	8	...........	-32768,00
	1104	27,625	3,95781E-001	-3,73609E-005	0,00000E+000	3,96005E-001	0,00000E+000	8	...........	-32768,00
	1107	27,7	3,92878E-001	-3,79221E-005	0,00000E+000	3,93005E-001	0,00000E+000	8	...........	-32768,00
	1110	27,775	3,89976E-001	-3,82796E-005	0,00000E+000	3,90004E-001	0,00000E+000	8	...........	-32768,00
	1113	27,85	3,86873E-001	-3,84767E-005	0,00000E+000	3,87004E-001	0,00000E+000	8	...........	-32768,00
	1116	27,925	3,83870E-001	-3,85034E-005	0,00000E+000	3,84004E-001	0,00000E+000	8	...........	-32768,00
	1119	28	3,80867E-001	-3,83865E-005	0,00000E+000	3,81004E-001	0,00000E+000	8	...........	-32768,00
	1122	28,075	3,77964E-001	-3,81426E-005	0,00000E+000	3,78003E-001	0,00000E+000	8	...........	-32768,00
	1125	28,15	3,74861E-001	-3,77718E-005	0,00000E+000	3,75003E-001	0,00000E+000	8	...........	-32768,00
	1128	28,225	3,71758E-001	-3,72941E-005	0,00000E+000	3,72003E-001	0,00000E+000	8	...........	-32768,00
	1131	28,3	3,68955E-001	-3,67462E-005	0,00000E+000	3,69003E-001	0,00000E+000	8	...........	-32768,00
	1134	28,375	3,65953E-001	-3,61348E-005	0,00000E+000	3,66003E-001	0,00000E+000	8	...........	-32768,00
	1137	28,45	3,62850E-001	-3,54734E-005	0,00000E+000	3,63002E-001	0,00000E+000	8	...........	-32768,00
	1140	28,525	3,59847E-001	-3,47852E-005	0,00000E+000	3,60002E-001	0,00000E+000	8	...........	-32768,00
	1143	28,6	3,56844E-001	-3,40636E-005	0,00000E+000	3,57002E-001	0,00000E+000	8	...........	-32768,00
	1146	28,675	3,53841E-001	-3,33253E-005	0,00000E+000	3,54002E-001	0,00000E+000	8	...........	-32768,00
	1149	28,75	3,50838E-001	-3,26137E-005	0,00000E+000	3,51001E-001	0,00000E+000	8	...........	-32768,00
	1152	28,825	3,47835E-001	-3,18787E-005	0,00000E+000	3,48001E-001	0,00000E+000	8	...........	-32768,00
	1155	28,9	3,44832E-001	-3,11571E-005	0,00000E+000	3,45001E-001	0,00000E+000	8	...........	-32768,00
	1158	28,975	3,41829E-001	-3,04656E-005	0,00000E+000	3,42001E-001	0,00000E+000	8	...........	-32768,00
	1161	29,05	3,38826E-001	-2,98242E-005	0,00000E+000	3,39000E-001	0,00000E+000	8	...........	-32768,00
	1164	29,125	3,35824E-001	-2,91193E-005	0,00000E+000	3,36000E-001	0,00000E+000	8	...........	-32768,00
	1167	29,2	3,32721E-001	-2,84912E-005	0,00000E+000	3,33000E-001	0,00000E+000	8	...........	-32768,00
	1170	29,275	3,29818E-001	-2,78665E-005	0,00000E+000	3,30000E-001	0,00000E+000	8	...........	-32768,00
	1173	29,35	3,26815E-001	-2,72886E-005	0,00000E+000	3,26999E-001	0,00000E+000	8	...........	-32768,00
	1176	29,425	3,23812E-001	-2,66973E-005	0,00000E+000	3,23999E-001	0,00000E+000	8	...........	-32768,00
	1179	29,5	3,20909E-001	-2,61394E-005	0,00000E+000	3,20999E-001	0,00000E+000	8	...........	-32768,00
	1182	29,575	3,17806E-001	-2,56082E-005	0,00000E+000	3,17999E-001	0,00000E+000	8	...........	-32768,00
	1185	29,65	3,14803E-001	-2,50970E-005	0,00000E+000	3,14998E-001	0,00000E+000	8	...........	-32768,00
	1188	29,725	3,11801E-001	-2,46126E-005	0,00000E+000	3,11998E-001	0,00000E+000	8	...........	-32768,00
	1191	29,8	3,08798E-001	-2,41115E-005	0,00000E+000	3,08998E-001	0,00000E+000	8	...........	-32768,00
	1194	29,875	3,05795E-001	-2,36705E-005	0,00000E+000	3,05998E-001	0,00000E+000	8	...........	-32768,00
	1197	29,95	3,02792E-001	-2,32129E-005	0,00000E+000	3,02997E-001	0,00000E+000	8	...........	-32768,00
	1200	30,025	2,99789E-001	-2,27819E-005	0,00000E+000	2,99997E-001	0,00000E+000	8	...........	-32768,00
	1203	30,1	2,96786E-001	-2,23910E-005	0,00000E+000	2,96997E-001	0,00000E+000	8	...........	-32768,00
	1206	30,175	2,93783E-001	-2,20002E-005	0,00000E+000	2,93997E-001	0,00000E+000	8	...........	-32768,00
	1209	30,25	2,90780E-001	-2,16294E-005	0,00000E+000	2,90996E-001	0,00000E+000	8	...........	-32768,00
	1212	30,325	2,87777E-001	-2,12385E-005	0,00000E+000	2,87996E-001	0,00000E+000	8	...........	-32768,00
	1215	30,4	2,84875E-001	-2,08877E-005	0,00000E+000	2,84996E-001	0,00000E+000	8	...........	-32768,00
	1218	30,475	2,81872E-001	-2,05303E-005	0,00000E+000	2,81996E-001	0,00000E+000	8	...........	-32768,00
	1221	30,55	2,78769E-001	-2,02162E-005	0,00000E+000	2,78996E-001	0,00000E+000	8	...........	-32768,00
	1224	30,625	2,75766E-001	-1,99089E-005	0,00000E+000	2,75995E-001	0,00000E+000	8	...........	-32768,00
	1227	30,7	2,72863E-001	-1,95949E-005	0,00000E+000	2,72995E-001	0,00000E+000	8	...........	-32768,00
	1230	30,775	2,69860E-001	-1,92808E-005	0,00000E+000	2,69995E-001	0,00000E+000	8	...........	-32768,00
	1233	30,85	2,66757E-001	-1,90069E-005	0,00000E+000	2,66995E-001	0,00000E+000	8	...........	-32768,00
	1236	30,925	2,63754E-001	-1,87296E-005	0,00000E+000	2,63994E-001	0,00000E+000	8	...........	-32768,00
	1239	31	2,60852E-001	-1,84490E-005	0,00000E+000	2,60994E-001	0,00000E+000	8	...........	-32768,00
	1242	31,075	2,57949E-001	-1,81884E-005	0,00000E+000	2,57994E-001	0,00000E+000	8	...........	-32768,00
	1245	31,15	2,54846E-001	-1,79479E-005	0,00000E+000	2,55006E-001	0,00000E+000	8	...........	-32768,00
	1248	31,225	2,51843E-001	-1,76840E-005	0,00000E+000	2,52006E-001	0,00000E+000	8	...........	-32768,00
	1251	31,3	2,48940E-001	-1,74735E-005	0,00000E+000	2,49006E-001	0,00000E+000	8	...........	-32768,00
	1254	31,375	2,45837E-001	-1,72497E-005	0,00000E+000	2,46005E-001	0,00000E+000	8	...........	-32768,00
	1257	31,45	2,42834E-001	-1,70459E-005	0,00000E+000	2,43005E-001	0,00000E+000	8	...........	-32768,00
	1260	31,525	2,39831E-001	-1,68220E-005	0,00000E+000	2,40005E-001	0,00000E+000	8	...........	-32768,00
	1263	31,6	2,36828E-001	-1,66216E-005	0,00000E+000	2,37005E-001	0,00000E+000	8	...........	-32768,00
	1266	31,675	2,33826E-001	-1,64379E-005	0,00000E+000	2,34004E-001	0,00000E+000	8	...........	-32768,00
	1269	31,75	2,30823E-001	-1,62374E-005	0,00000E+000	2,31004E-001	0,00000E+000	8	...........	-32768,00
	1272	31,825	2,27820E-001	-1,60436E-005	0,00000E+000	2,28004E-001	0,00000E+000	8	...........	-32768,00
	1275	31,9	2,24817E-001	-1,58733E-005	0,00000E+000	2,25004E-001	0,00000E+000	8	...........	-32768,00
	1278	31,975	2,21814E-001	-1,56929E-005	0,00000E+000	2,22003E-001	0,00000E+000	8	...........	-32768,00
	1281	32,05	2,18811E-001	-1,55258E-005	0,00000E+000	2,19003E-001	0,00000E+000	8	...........	-32768,00
	1284	32,125	2,15808E-001	-1,53621E-005	0,00000E+000	2,16003E-001	0,00000E+000	8	...........	-32768,00
	1287	32,2	2,12805E-001	-1,52151E-005	0,00000E+000	2,13003E-001	0,00000E+000	8	...........	-32768,00
	1290	32,275	2,09803E-001	-1,50481E-005	0,00000E+000	2,10003E-001	0,00000E+000	8	...........	-32768,00
	1293	32,35	2,06800E-001	-1,49111E-005	0,00000E+000	2,07002E-001	0,00000E+000	8	...........	-32768,00
	1296	32,425	2,03797E-001	-1,47541E-005	0,00000E+000	2,04002E-001	0,00000E+000	8	...........	-32768,00
	1299	32,5	2,00794E-001	-1,46238E-005	0,00000E+000	2,01002E-001	0,00000E+000	8	...........	-32768,00
	1302	32,575	1,97691E-001	-1,44768E-005	0,00000E+000	1,98002E-001	0,00000E+000	8	...........	-32768,00
	1305	32,65	1,94688E-001	-1,43699E-005	0,00000E+000	1,95001E-001	0,00000E+000	8	...........	-32768,00
	1308	32,725	1,91785E-001	-1,42196E-005	0,00000E+000	1,92001E-001	0,00000E+000	8	...........	-32768,00
	1311	32,8	1,88882E-001	-1,41060E-005	0,00000E+000	1,89001E-001	0,00000E+000	8	...........	-32768,00
	1314	32,875	1,85779E-001	-1,39924E-005	0,00000E+000	1,86001E-001	0,00000E+000	8	...........	-32768,00
	1317	32,95	1,82676E-001	-1,38555E-005	0,00000E+000	1,83000E-001	0,00000E+000	8	...........	-32768,00
	1320	33,025	1,79774E-001	-1,37452E-005	0,00000E+000	1,80000E-001	0,00000E+000	8	...........	-32768,00
	1323	33,1	1,76771E-001	-1,36417E-005	0,00000E+000	1,77000E-001	0,00000E+000	8	...........	-32768,00
	1326	33,175	1,73768E-001	-1,35247E-005	0,00000E+000	1,74000E-001	0,00000E+000	8	...........	-32768,00
	1329	33,25	1,70765E-001	-1,34245E-005	0,00000E+000	1,70999E-001	0,00000E+000	8	...........	-32768,00
	1332	33,325	1,67762E-001	-1,33377E-005	0,00000E+000	1,67999E-001	0,00000E+000	8	...........	-32768,00
	1335	33,4	1,64859E-001	-1,32274E-005	0,00000E+000	1,64999E-001	0,00000E+000	8	...........	-32768,00
	1338	33,475	1,61756E-001	-1,31238E-005	0,00000E+000	1,61999E-001	0,00000E+000	8	...........	-32768,00
	1341	33,55	1,58753E-001	-1,30437E-005	0,00000E+000	1,58998E-001	0,00000E+000	8	...........	-32768,00
	1344	33,625	1,55851E-001	-1,29301E-005	0,00000E+000	1,55998E-001	0,00000E+000	8	...........	-32768,00
	1347	33,7	1,52848E-001	-1,28666E-005	0,00000E+000	1,52998E-001	0,00000E+000	8	...........	-32768,00
	1350	33,775	1,49845E-001	-1,27864E-005	0,00000E+000	1,49998E-001	0,00000E+000	8	...........	-32768,00
	1353	33,85	1,46842E-001	-1,26962E-005	0,00000E+000	1,46997E-001	0,00000E+000	8	...........	-32768,00
	1356	33,925	1,43839E-001	-1,26161E-005	0,00000E+000	1,43997E-001	0,00000E+000	8	...........	-32768,00
	1359	34	1,40736E-001	-1,25426E-005	0,00000E+000	1,40997E-001	0,00000E+000	8	...........	-32768,00
	1362	34,075	1,37733E-001	-1,24590E-005	0,00000E+000	1,37997E-001	0,00000E+000	8	...........	-32768,00
	1365	34,15	1,34730E-001	-1,24123E-005	0,00000E+000	1,34997E-001	0,00000E+000	8	...........	-32768,00
	1368	34,225	1,31728E-001	-1,23354E-005	0,00000E+000	1,31996E-001	0,00000E+000	8	...........	-32768,00
	1371	34,3	1,28825E-001	-1,22720E-005	0,00000E+000	1,28996E-001	0,00000E+000	8	...........	-32768,00
	1374	34,375	1,25822E-001	-1,22085E-005	0,00000E+000	1,25996E-001	0,00000E+000	8	...........	-32768,00
	1377	34,45	1,22719E-001	-1,21651E-005	0,00000E+000	1,22996E-001	0,00000E+000	8	...........	-32768,00
	1380	34,525	1,19816E-001	-1,21083E-005	0,00000E+000	1,19995E-001	0,00000E+000	8	...........	-32768,00
	1383	34,6	1,16813E-001	-1,20414E-005	0,00000E+000	1,16995E-001	0,00000E+000	8	...........	-32768,00
	1386	34,675	1,13710E-001	-1,20147E-005	0,00000E+000	1,13995E-001	0,00000E+000	8	...........	-32768,00
	1389	34,75	1,10807E-001	-1,19646E-005	0,00000E+000	1,10995E-001	0,00000E+000	8	...........	-32768,00
	1392	34,825	1,07805E-001	-1,19212E-005	0,00000E+000	1,07994E-001	0,00000E+000	8	...........	-32768,00
	1395	34,9	1,04802E-001	-1,18945E-005	0,00000E+000	1,04994E-001	0,00000E+000	8	...........	-32768,00
	1398	34,975	1,01699E-001	-1,18477E-005	0,00000E+000	1,01994E-001	0,00000E+000	8	...........	-32768,00
	1400	35,025	9,97968E-002	-1,18276E-005	0,00000E+000	1,00006E-001	0,00000E+000	8	...........	-32768,00