File: HOPG_cv/1mM/AgNO3_HOPG_1mM_4_100mv_cv.DTA
EXPLAIN
TAG	CV
TITLE	LABEL	Cyclic Voltammetry	Test &Identifier
DATE	LABEL	7/4/2022	Date
TIME	LABEL	20:12:42	Time
NOTES	NOTES	2	&Notes...
	07/04/22 , 1mM  AgNO3

PSTAT	PSTAT	IFC1000-09004	Potentiostat
VINIT	POTEN	1,00000E-001	F	Initial &E (V)
VLIMIT1	POTEN	1,00000E-001	F	Scan Limit &1 (V)
VLIMIT2	POTEN	8,00000E-001	F	Scan Limit &2 (V)
VFINAL	POTEN	1,00000E-001	F	Final &E (V)
SCANRATE	QUANT	9,99998E+001	&Scan Rate (mV/s)
STEPSIZE	QUANT	1,00000E+000	St&ep Size (mV)
CYCLES	IQUANT	1	C&ycles (#)
IMODE	SELECTOR	0	I/E Range &Mode
IRANGE	QUANT	1,00000E-005	&Max Current (mA)
AREA	QUANT	1,00000E+000	Electrode &Area (cm^2)
ELECTRODETYPE	SELECTOR	0	Electrode Type
STRIPPING	TOGGLE	F	Used for Stripping
POLARITY	TOGGLE	F	Signal Polarity
CONDIT	TWOPARAM	F	1,50000E+001	0,00000E+000	Conditionin&g	Time(s)	E(V)
DELAY	TWOPARAM	F	3,00000E+001	0,00000E+000	Init. De&lay	Time(s)	Stab.(mV/s)
EQDELAY	QUANT	1,00000E+001	Equil. &Time (s)
IRCOMP	SELECTOR	0	IRCom&p
PFCOR	QUANT	5,00000E+001	PF Corr. (ohm)
SAMPLINGMODE	SELECTOR	0	Sampling &Mode
EOC	QUANT	0	Open Circuit (V)
PSTATMODEL	IQUANT	48	Pstat Model
PSTATSECTION	LABEL	IFC1000-09004	Pstat Section
PSTATSERIALNO	LABEL	09004	Pstat Serial Number
CTRLMODE	IQUANT	1	Control Mode
ELECTROMETER	IQUANT	0	RE=0 or CS=1
IESTAB	IQUANT	2	I/E Stability
CASPEED	IQUANT	4	Control Amp Speed
CONVENTION	IQUANT	1	Current Convention
ICHRANGE	IQUANT	2	Ich Range
ICHRANGEMODE	TOGGLE	F	Ich Auto Range
ICHOFFSETENABLE	TOGGLE	F	Ich Offset Enable
ICHOFFSET	QUANT	0	Ich Offset (V)
ICHFILTER	IQUANT	3	Ich Filter
VCHRANGE	IQUANT	2	Vch Range
VCHRANGEMODE	TOGGLE	F	Vch Auto Range
VCHOFFSETENABLE	TOGGLE	F	Vch Offset Enable
VCHOFFSET	QUANT	0	Vch Offset (V)
VCHFILTER	IQUANT	3	Vch Filter
IERANGELOWERLIMIT	IQUANT	4	I/E Range Lower Limit
IERANGEMODE	TOGGLE	T	I/E AutoRange
IERANGE	IQUANT	5	I/E Range
ACHSELECT	IQUANT	0	Ach Select
ACHRANGE	IQUANT	2	Ach Range
ACHOFFSETENABLE	TOGGLE	F	Ach Offset Enable
ACHOFFSET	QUANT	0	Ach Offset (V)
ACHFILTER	IQUANT	1	Ach Filter
CABLEID	IQUANT	14	Cable ID
DCCALDATE	LABEL	3/18/2022	DC Calibration Date
ACCALDATE	LABEL	3/10/2016	AC Calibration Date
FRAMEWORKVERSION	QUANT	7,05	Framework Version
INSTRUMENTVERSION	LABEL	4.21	Instrument Version
CURVE1	TABLE
	Pt	T	Vf	Im	Vu	Sig	Ach	IERange	Over	Temp
	#	s	V vs. Ref.	A	V	V	V	#	bits	deg C
	0	0,01	9,97968E-002	-7,18402E-006	0,00000E+000	1,00006E-001	0,00000E+000	8	...........	-32768,00
	3	0,04	1,02700E-001	-6,95017E-006	0,00000E+000	1,02994E-001	0,00000E+000	8	...........	-32768,00
	6	0,07	1,05803E-001	-6,82322E-006	0,00000E+000	1,05994E-001	0,00000E+000	8	...........	-32768,00
	9	0,1	1,08805E-001	-6,72968E-006	0,00000E+000	1,08994E-001	0,00000E+000	8	...........	-32768,00
	12	0,13	1,11808E-001	-6,64282E-006	0,00000E+000	1,11995E-001	0,00000E+000	8	...........	-32768,00
	15	0,16	1,14811E-001	-6,55596E-006	0,00000E+000	1,14995E-001	0,00000E+000	8	...........	-32768,00
	18	0,19	1,17714E-001	-6,50251E-006	0,00000E+000	1,17995E-001	0,00000E+000	8	...........	-32768,00
	21	0,22	1,20717E-001	-6,42233E-006	0,00000E+000	1,20995E-001	0,00000E+000	8	...........	-32768,00
	24	0,25	1,23820E-001	-6,36220E-006	0,00000E+000	1,23996E-001	0,00000E+000	8	...........	-32768,00
	27	0,28	1,26723E-001	-6,29872E-006	0,00000E+000	1,26996E-001	0,00000E+000	8	...........	-32768,00
	30	0,31	1,29826E-001	-6,24193E-006	0,00000E+000	1,29996E-001	0,00000E+000	8	...........	-32768,00
	33	0,34	1,32829E-001	-6,17846E-006	0,00000E+000	1,32996E-001	0,00000E+000	8	...........	-32768,00
	36	0,37	1,35731E-001	-6,14505E-006	0,00000E+000	1,35997E-001	0,00000E+000	8	...........	-32768,00
	39	0,4	1,38734E-001	-6,09828E-006	0,00000E+000	1,38997E-001	0,00000E+000	8	...........	-32768,00
	42	0,43	1,41837E-001	-6,04149E-006	0,00000E+000	1,41997E-001	0,00000E+000	8	...........	-32768,00
	45	0,46	1,44740E-001	-5,99471E-006	0,00000E+000	1,44997E-001	0,00000E+000	8	...........	-32768,00
	48	0,49	1,47843E-001	-5,96131E-006	0,00000E+000	1,47998E-001	0,00000E+000	8	...........	-32768,00
	51	0,52	1,50746E-001	-5,91788E-006	0,00000E+000	1,50998E-001	0,00000E+000	8	...........	-32768,00
	54	0,55	1,53749E-001	-5,88781E-006	0,00000E+000	1,53998E-001	0,00000E+000	8	...........	-32768,00
	57	0,58	1,56852E-001	-5,86777E-006	0,00000E+000	1,56998E-001	0,00000E+000	8	...........	-32768,00
	60	0,61	1,59754E-001	-5,81097E-006	0,00000E+000	1,59999E-001	0,00000E+000	8	...........	-32768,00
	63	0,64	1,62757E-001	-5,78425E-006	0,00000E+000	1,62999E-001	0,00000E+000	8	...........	-32768,00
	66	0,67	1,65860E-001	-5,75418E-006	0,00000E+000	1,65999E-001	0,00000E+000	8	...........	-32768,00
	69	0,7	1,68763E-001	-5,73080E-006	0,00000E+000	1,68999E-001	0,00000E+000	8	...........	-32768,00
	72	0,73	1,71866E-001	-5,70073E-006	0,00000E+000	1,71999E-001	0,00000E+000	8	...........	-32768,00
	75	0,76	1,74769E-001	-5,67066E-006	0,00000E+000	1,75000E-001	0,00000E+000	8	...........	-32768,00
	78	0,79	1,77772E-001	-5,64728E-006	0,00000E+000	1,78000E-001	0,00000E+000	8	...........	-32768,00
	81	0,82	1,80875E-001	-5,61053E-006	0,00000E+000	1,81000E-001	0,00000E+000	8	...........	-32768,00
	84	0,85	1,83778E-001	-5,59049E-006	0,00000E+000	1,84000E-001	0,00000E+000	8	...........	-32768,00
	87	0,88	1,86881E-001	-5,56710E-006	0,00000E+000	1,87001E-001	0,00000E+000	8	...........	-32768,00
	90	0,91	1,89783E-001	-5,55040E-006	0,00000E+000	1,90001E-001	0,00000E+000	8	...........	-32768,00
	93	0,94	1,92786E-001	-5,52367E-006	0,00000E+000	1,93001E-001	0,00000E+000	8	...........	-32768,00
	96	0,97	1,95789E-001	-5,50363E-006	0,00000E+000	1,96001E-001	0,00000E+000	8	...........	-32768,00
	99	1	1,98792E-001	-5,48358E-006	0,00000E+000	1,99002E-001	0,00000E+000	8	...........	-32768,00
	102	1,03	2,01795E-001	-5,47022E-006	0,00000E+000	2,02002E-001	0,00000E+000	8	...........	-32768,00
	105	1,06	2,04898E-001	-5,44349E-006	0,00000E+000	2,05002E-001	0,00000E+000	8	...........	-32768,00
	108	1,09	2,07701E-001	-5,42679E-006	0,00000E+000	2,08002E-001	0,00000E+000	8	...........	-32768,00
	111	1,12	2,10803E-001	-5,39672E-006	0,00000E+000	2,11003E-001	0,00000E+000	8	...........	-32768,00
	114	1,15	2,13806E-001	-5,37668E-006	0,00000E+000	2,14003E-001	0,00000E+000	8	...........	-32768,00
	117	1,18	2,16709E-001	-5,34661E-006	0,00000E+000	2,17003E-001	0,00000E+000	8	...........	-32768,00
	120	1,21	2,19812E-001	-5,33993E-006	0,00000E+000	2,20003E-001	0,00000E+000	8	...........	-32768,00
	123	1,24	2,22815E-001	-5,32991E-006	0,00000E+000	2,23004E-001	0,00000E+000	8	...........	-32768,00
	126	1,27	2,25818E-001	-5,29650E-006	0,00000E+000	2,26004E-001	0,00000E+000	8	...........	-32768,00
	129	1,3	2,28721E-001	-5,29316E-006	0,00000E+000	2,29004E-001	0,00000E+000	8	...........	-32768,00
	132	1,33	2,31824E-001	-5,26977E-006	0,00000E+000	2,32004E-001	0,00000E+000	8	...........	-32768,00
	135	1,36	2,34827E-001	-5,23971E-006	0,00000E+000	2,35005E-001	0,00000E+000	8	...........	-32768,00
	138	1,39	2,37729E-001	-5,23971E-006	0,00000E+000	2,38005E-001	0,00000E+000	8	...........	-32768,00
	141	1,42	2,40732E-001	-5,20296E-006	0,00000E+000	2,41005E-001	0,00000E+000	8	...........	-32768,00
	144	1,45	2,43835E-001	-5,19628E-006	0,00000E+000	2,44005E-001	0,00000E+000	8	...........	-32768,00
	147	1,48	2,46738E-001	-5,17958E-006	0,00000E+000	2,47005E-001	0,00000E+000	8	...........	-32768,00
	150	1,51	2,49741E-001	-5,13615E-006	0,00000E+000	2,50006E-001	0,00000E+000	8	...........	-32768,00
	153	1,54	2,52844E-001	-5,12278E-006	0,00000E+000	2,53006E-001	0,00000E+000	8	...........	-32768,00
	156	1,57	2,55847E-001	-5,10942E-006	0,00000E+000	2,56006E-001	0,00000E+000	8	...........	-32768,00
	159	1,6	2,58850E-001	-5,08603E-006	0,00000E+000	2,58994E-001	0,00000E+000	8	...........	-32768,00
	162	1,63	2,61853E-001	-5,07601E-006	0,00000E+000	2,61994E-001	0,00000E+000	8	...........	-32768,00
	165	1,66	2,64855E-001	-5,04929E-006	0,00000E+000	2,64994E-001	0,00000E+000	8	...........	-32768,00
	168	1,69	2,67758E-001	-5,01922E-006	0,00000E+000	2,67995E-001	0,00000E+000	8	...........	-32768,00
	171	1,72	2,70861E-001	-4,98915E-006	0,00000E+000	2,70995E-001	0,00000E+000	8	...........	-32768,00
	174	1,75	2,73864E-001	-4,96577E-006	0,00000E+000	2,73995E-001	0,00000E+000	8	...........	-32768,00
	177	1,78	2,76767E-001	-4,95241E-006	0,00000E+000	2,76995E-001	0,00000E+000	8	...........	-32768,00
	180	1,81	2,79770E-001	-4,92902E-006	0,00000E+000	2,79996E-001	0,00000E+000	8	...........	-32768,00
	183	1,84	2,82873E-001	-4,88893E-006	0,00000E+000	2,82996E-001	0,00000E+000	8	...........	-32768,00
	186	1,87	2,85876E-001	-4,86221E-006	0,00000E+000	2,85996E-001	0,00000E+000	8	...........	-32768,00
	189	1,9	2,88778E-001	-4,82880E-006	0,00000E+000	2,88996E-001	0,00000E+000	8	...........	-32768,00
	192	1,93	2,91881E-001	-4,80207E-006	0,00000E+000	2,91997E-001	0,00000E+000	8	...........	-32768,00
	195	1,96	2,94784E-001	-4,75530E-006	0,00000E+000	2,94997E-001	0,00000E+000	8	...........	-32768,00
	198	1,99	2,97787E-001	-4,73526E-006	0,00000E+000	2,97997E-001	0,00000E+000	8	...........	-32768,00
	201	2,02	3,00890E-001	-4,69851E-006	0,00000E+000	3,00997E-001	0,00000E+000	8	...........	-32768,00
	204	2,05	3,03893E-001	-4,64840E-006	0,00000E+000	3,03998E-001	0,00000E+000	8	...........	-32768,00
	207	2,08	3,06796E-001	-4,61499E-006	0,00000E+000	3,06998E-001	0,00000E+000	8	...........	-32768,00
	210	2,11	3,09799E-001	-4,55820E-006	0,00000E+000	3,09998E-001	0,00000E+000	8	...........	-32768,00
	213	2,14	3,12902E-001	-4,50475E-006	0,00000E+000	3,12998E-001	0,00000E+000	8	...........	-32768,00
	216	2,17	3,15804E-001	-4,43793E-006	0,00000E+000	3,15998E-001	0,00000E+000	8	...........	-32768,00
	219	2,2	3,18807E-001	-4,39450E-006	0,00000E+000	3,18999E-001	0,00000E+000	8	...........	-32768,00
	222	2,23	3,21810E-001	-4,33103E-006	0,00000E+000	3,21999E-001	0,00000E+000	8	...........	-32768,00
	225	2,26	3,24813E-001	-4,26421E-006	0,00000E+000	3,24999E-001	0,00000E+000	8	...........	-32768,00
	228	2,29	3,27816E-001	-4,17401E-006	0,00000E+000	3,27999E-001	0,00000E+000	8	...........	-32768,00
	231	2,32	3,30819E-001	-4,10720E-006	0,00000E+000	3,31000E-001	0,00000E+000	8	...........	-32768,00
	234	2,35	3,33922E-001	-4,02702E-006	0,00000E+000	3,34000E-001	0,00000E+000	8	...........	-32768,00
	237	2,38	3,36825E-001	-3,92012E-006	0,00000E+000	3,37000E-001	0,00000E+000	8	...........	-32768,00
	240	2,41	3,39928E-001	-3,81655E-006	0,00000E+000	3,40000E-001	0,00000E+000	8	...........	-32768,00
	243	2,44	3,42830E-001	-3,71967E-006	0,00000E+000	3,43001E-001	0,00000E+000	8	...........	-32768,00
	246	2,47	3,45833E-001	-3,61277E-006	0,00000E+000	3,46001E-001	0,00000E+000	8	...........	-32768,00
	249	2,5	3,48836E-001	-3,49250E-006	0,00000E+000	3,49001E-001	0,00000E+000	8	...........	-32768,00
	252	2,53	3,51839E-001	-3,35887E-006	0,00000E+000	3,52001E-001	0,00000E+000	8	...........	-32768,00
	255	2,56	3,54942E-001	-3,20854E-006	0,00000E+000	3,55002E-001	0,00000E+000	8	...........	-32768,00
	258	2,59	3,57845E-001	-3,05821E-006	0,00000E+000	3,58002E-001	0,00000E+000	8	...........	-32768,00
	261	2,62	3,60848E-001	-2,89785E-006	0,00000E+000	3,61002E-001	0,00000E+000	8	...........	-32768,00
	264	2,65	3,63750E-001	-2,73750E-006	0,00000E+000	3,64002E-001	0,00000E+000	8	...........	-32768,00
	267	2,68	3,66853E-001	-2,55710E-006	0,00000E+000	3,67003E-001	0,00000E+000	8	...........	-32768,00
	270	2,71	3,69856E-001	-2,35665E-006	0,00000E+000	3,70003E-001	0,00000E+000	8	...........	-32768,00
	273	2,74	3,72759E-001	-2,16289E-006	0,00000E+000	3,73003E-001	0,00000E+000	8	...........	-32768,00
	276	2,77	3,75762E-001	-1,93238E-006	0,00000E+000	3,76003E-001	0,00000E+000	8	...........	-32768,00
	279	2,8	3,78865E-001	-1,72191E-006	0,00000E+000	3,79004E-001	0,00000E+000	8	...........	-32768,00
	282	2,83	3,81868E-001	-1,48138E-006	0,00000E+000	3,82004E-001	0,00000E+000	8	...........	-32768,00
	285	2,86	3,84871E-001	-1,23751E-006	0,00000E+000	3,85004E-001	0,00000E+000	8	...........	-32768,00
	288	2,89	3,87874E-001	-9,86951E-007	0,00000E+000	3,88004E-001	0,00000E+000	8	...........	-32768,00
	291	2,92	3,90877E-001	-7,13011E-007	0,00000E+000	3,91005E-001	0,00000E+000	8	...........	-32768,00
	294	2,95	3,93779E-001	-4,45752E-007	0,00000E+000	3,94005E-001	0,00000E+000	8	...........	-32768,00
	297	2,98	3,96882E-001	-1,55108E-007	0,00000E+000	3,97005E-001	0,00000E+000	8	...........	-32768,00
	300	3,01	3,99885E-001	1,38877E-007	0,00000E+000	4,00005E-001	0,00000E+000	8	...........	-32768,00
	303	3,04	4,02888E-001	4,39543E-007	0,00000E+000	4,03005E-001	0,00000E+000	8	...........	-32768,00
	306	3,07	4,05891E-001	7,63594E-007	0,00000E+000	4,06006E-001	0,00000E+000	8	...........	-32768,00
	309	3,1	4,08794E-001	1,07428E-006	0,00000E+000	4,09006E-001	0,00000E+000	8	...........	-32768,00
	312	3,13	4,11897E-001	1,42172E-006	0,00000E+000	4,12006E-001	0,00000E+000	8	...........	-32768,00
	315	3,16	4,14799E-001	1,78920E-006	0,00000E+000	4,14994E-001	0,00000E+000	8	...........	-32768,00
	318	3,19	4,17802E-001	2,15334E-006	0,00000E+000	4,17994E-001	0,00000E+000	8	...........	-32768,00
	321	3,22	4,20805E-001	2,55757E-006	0,00000E+000	4,20994E-001	0,00000E+000	8	...........	-32768,00
	324	3,25	4,23908E-001	2,96180E-006	0,00000E+000	4,23995E-001	0,00000E+000	8	...........	-32768,00
	327	3,28	4,26911E-001	3,41280E-006	0,00000E+000	4,26995E-001	0,00000E+000	8	...........	-32768,00
	330	3,31	4,29714E-001	3,87382E-006	0,00000E+000	4,29995E-001	0,00000E+000	8	...........	-32768,00
	333	3,34	4,32917E-001	4,37159E-006	0,00000E+000	4,32995E-001	0,00000E+000	8	...........	-32768,00
	336	3,37	4,35820E-001	4,89274E-006	0,00000E+000	4,35996E-001	0,00000E+000	8	...........	-32768,00
	339	3,4	4,38823E-001	5,44062E-006	0,00000E+000	4,38996E-001	0,00000E+000	8	...........	-32768,00
	342	3,43	4,41825E-001	6,02191E-006	0,00000E+000	4,41996E-001	0,00000E+000	8	...........	-32768,00
	345	3,46	4,44828E-001	6,65331E-006	0,00000E+000	4,44996E-001	0,00000E+000	8	...........	-32768,00
	348	3,49	4,47931E-001	7,33482E-006	0,00000E+000	4,47997E-001	0,00000E+000	8	...........	-32768,00
	351	3,52	4,50834E-001	8,03638E-006	0,00000E+000	4,50997E-001	0,00000E+000	8	...........	-32768,00
	354	3,55	4,53837E-001	8,78804E-006	0,00000E+000	4,53997E-001	0,00000E+000	8	...........	-32768,00
	357	3,58	4,56840E-001	9,58314E-006	0,00000E+000	4,56997E-001	0,00000E+000	8	...........	-32768,00
	360	3,61	4,59743E-001	1,04651E-005	0,00000E+000	4,59998E-001	0,00000E+000	8	...........	-32768,00
	363	3,64	4,62946E-001	1,13704E-005	0,00000E+000	4,62998E-001	0,00000E+000	8	...........	-32768,00
	366	3,67	4,65949E-001	1,23459E-005	0,00000E+000	4,65998E-001	0,00000E+000	8	...........	-32768,00
	369	3,7	4,68851E-001	1,33849E-005	0,00000E+000	4,68998E-001	0,00000E+000	8	...........	-32768,00
	372	3,73	4,71854E-001	1,44773E-005	0,00000E+000	4,71999E-001	0,00000E+000	8	...........	-32768,00
	375	3,76	4,74957E-001	1,56533E-005	0,00000E+000	4,74999E-001	0,00000E+000	8	...........	-32768,00
	378	3,79	4,77860E-001	1,68893E-005	0,00000E+000	4,77999E-001	0,00000E+000	8	...........	-32768,00
	381	3,82	4,80763E-001	1,82056E-005	0,00000E+000	4,80999E-001	0,00000E+000	8	...........	-32768,00
	384	3,85	4,83866E-001	1,95987E-005	0,00000E+000	4,83999E-001	0,00000E+000	8	...........	-32768,00
	387	3,88	4,86869E-001	2,10786E-005	0,00000E+000	4,87000E-001	0,00000E+000	8	...........	-32768,00
	390	3,91	4,89972E-001	2,26554E-005	0,00000E+000	4,90000E-001	0,00000E+000	8	...........	-32768,00
	393	3,94	4,92874E-001	2,42957E-005	0,00000E+000	4,93000E-001	0,00000E+000	8	...........	-32768,00
	396	3,97	4,95777E-001	2,60262E-005	0,00000E+000	4,96000E-001	0,00000E+000	8	...........	-32768,00
	399	4	4,98980E-001	2,78636E-005	0,00000E+000	4,99001E-001	0,00000E+000	8	...........	-32768,00
	402	4,03	5,01883E-001	2,97846E-005	0,00000E+000	5,02001E-001	0,00000E+000	8	...........	-32768,00
	405	4,06	5,04786E-001	3,18191E-005	0,00000E+000	5,05001E-001	0,00000E+000	8	...........	-32768,00
	408	4,09	5,07889E-001	3,39371E-005	0,00000E+000	5,08001E-001	0,00000E+000	8	...........	-32768,00
	411	4,12	5,10892E-001	3,61353E-005	0,00000E+000	5,11002E-001	0,00000E+000	8	...........	-32768,00
	414	4,15	5,13795E-001	3,84471E-005	0,00000E+000	5,14002E-001	0,00000E+000	8	...........	-32768,00
	417	4,18	5,16898E-001	4,08357E-005	0,00000E+000	5,17002E-001	0,00000E+000	8	...........	-32768,00
	420	4,21	5,19901E-001	4,33346E-005	0,00000E+000	5,20002E-001	0,00000E+000	8	...........	-32768,00
	423	4,24	5,22903E-001	4,59070E-005	0,00000E+000	5,23003E-001	0,00000E+000	8	...........	-32768,00
	426	4,27	5,25806E-001	4,85862E-005	0,00000E+000	5,26003E-001	0,00000E+000	8	...........	-32768,00
	429	4,3	5,28909E-001	5,13323E-005	0,00000E+000	5,29003E-001	0,00000E+000	8	...........	-32768,00
	432	4,33	5,31812E-001	5,41920E-005	0,00000E+000	5,32003E-001	0,00000E+000	8	...........	-32768,00
	435	4,36	5,34815E-001	5,71185E-005	0,00000E+000	5,35004E-001	0,00000E+000	8	...........	-32768,00
	438	4,39	5,37918E-001	6,01084E-005	0,00000E+000	5,38004E-001	0,00000E+000	8	...........	-32768,00
	441	4,42	5,40921E-001	6,32053E-005	0,00000E+000	5,41004E-001	0,00000E+000	8	...........	-32768,00
	444	4,45	5,43823E-001	6,63356E-005	0,00000E+000	5,44004E-001	0,00000E+000	8	...........	-32768,00
	447	4,48	5,46926E-001	6,95560E-005	0,00000E+000	5,47005E-001	0,00000E+000	8	...........	-32768,00
	450	4,51	5,49929E-001	7,28600E-005	0,00000E+000	5,50005E-001	0,00000E+000	8	...........	-32768,00
	453	4,54	5,52832E-001	7,62175E-005	0,00000E+000	5,53005E-001	0,00000E+000	8	...........	-32768,00
	456	4,57	5,55835E-001	7,96751E-005	0,00000E+000	5,56005E-001	0,00000E+000	8	...........	-32768,00
	459	4,6	5,58938E-001	8,31695E-005	0,00000E+000	5,59005E-001	0,00000E+000	8	...........	-32768,00
	462	4,63	5,61941E-001	8,67475E-005	0,00000E+000	5,62006E-001	0,00000E+000	8	...........	-32768,00
	465	4,66	5,64944E-001	9,02799E-005	0,00000E+000	5,65006E-001	0,00000E+000	9	...........	-32768,00
	468	4,69	5,67847E-001	9,39852E-005	0,00000E+000	5,68006E-001	0,00000E+000	9	...........	-32768,00
	471	4,72	5,70749E-001	9,76904E-005	0,00000E+000	5,70994E-001	0,00000E+000	9	...........	-32768,00
	474	4,75	5,73952E-001	1,01563E-004	0,00000E+000	5,73994E-001	0,00000E+000	9	...........	-32768,00
	477	4,78	5,76855E-001	1,05468E-004	0,00000E+000	5,76994E-001	0,00000E+000	9	...........	-32768,00
	480	4,81	5,79958E-001	1,09440E-004	0,00000E+000	5,79995E-001	0,00000E+000	9	...........	-32768,00
	483	4,84	5,82861E-001	1,13446E-004	0,00000E+000	5,82995E-001	0,00000E+000	9	...........	-32768,00
	486	4,87	5,85864E-001	1,17452E-004	0,00000E+000	5,85995E-001	0,00000E+000	9	...........	-32768,00
	489	4,9	5,88867E-001	1,21524E-004	0,00000E+000	5,88995E-001	0,00000E+000	9	...........	-32768,00
	492	4,93	5,91970E-001	1,25597E-004	0,00000E+000	5,91996E-001	0,00000E+000	9	...........	-32768,00
	495	4,96	5,94872E-001	1,29702E-004	0,00000E+000	5,94996E-001	0,00000E+000	9	...........	-32768,00
	498	4,99	5,97875E-001	1,33808E-004	0,00000E+000	5,97996E-001	0,00000E+000	9	...........	-32768,00
	501	5,02	6,00878E-001	1,37947E-004	0,00000E+000	6,00996E-001	0,00000E+000	9	...........	-32768,00
	504	5,05	6,03881E-001	1,41986E-004	0,00000E+000	6,03997E-001	0,00000E+000	9	...........	-32768,00
	507	5,08	6,06884E-001	1,46059E-004	0,00000E+000	6,06997E-001	0,00000E+000	9	...........	-32768,00
	510	5,11	6,09887E-001	1,50198E-004	0,00000E+000	6,09997E-001	0,00000E+000	9	...........	-32768,00
	513	5,14	6,12890E-001	1,54304E-004	0,00000E+000	6,12997E-001	0,00000E+000	9	...........	-32768,00
	516	5,17	6,15993E-001	1,58410E-004	0,00000E+000	6,15998E-001	0,00000E+000	9	...........	-32768,00
	519	5,2	6,18896E-001	1,62449E-004	0,00000E+000	6,18998E-001	0,00000E+000	9	...........	-32768,00
	522	5,23	6,21798E-001	1,66554E-004	0,00000E+000	6,21998E-001	0,00000E+000	9	...........	-32768,00
	525	5,26	6,24901E-001	1,70593E-004	0,00000E+000	6,24998E-001	0,00000E+000	9	...........	-32768,00
	528	5,29	6,27804E-001	1,74499E-004	0,00000E+000	6,27999E-001	0,00000E+000	9	...........	-32768,00
	531	5,32	6,30907E-001	1,78204E-004	0,00000E+000	6,30999E-001	0,00000E+000	9	...........	-32768,00
	534	5,35	6,33910E-001	1,81776E-004	0,00000E+000	6,33999E-001	0,00000E+000	9	...........	-32768,00
	537	5,38	6,36913E-001	1,84980E-004	0,00000E+000	6,36999E-001	0,00000E+000	9	...........	-32768,00
	540	5,41	6,39916E-001	1,87584E-004	0,00000E+000	6,40000E-001	0,00000E+000	9	...........	-32768,00
	543	5,44	6,42819E-001	1,89520E-004	0,00000E+000	6,43000E-001	0,00000E+000	9	...........	-32768,00
	546	5,47	6,45922E-001	1,90655E-004	0,00000E+000	6,46000E-001	0,00000E+000	9	...........	-32768,00
	549	5,5	6,48924E-001	1,90722E-004	0,00000E+000	6,49000E-001	0,00000E+000	9	...........	-32768,00
	552	5,53	6,51927E-001	1,89253E-004	0,00000E+000	6,52000E-001	0,00000E+000	9	...........	-32768,00
	555	5,56	6,54930E-001	1,85581E-004	0,00000E+000	6,55001E-001	0,00000E+000	9	...........	-32768,00
	558	5,59	6,57933E-001	1,79339E-004	0,00000E+000	6,58001E-001	0,00000E+000	9	...........	-32768,00
	561	5,62	6,60936E-001	1,69859E-004	0,00000E+000	6,61001E-001	0,00000E+000	9	...........	-32768,00
	564	5,65	6,63939E-001	1,56407E-004	0,00000E+000	6,64001E-001	0,00000E+000	9	...........	-32768,00
	567	5,68	6,66942E-001	1,37046E-004	0,00000E+000	6,67002E-001	0,00000E+000	9	...........	-32768,00
	570	5,71	6,69945E-001	1,08439E-004	0,00000E+000	6,70002E-001	0,00000E+000	9	...........	-32768,00
	573	5,74	6,72847E-001	7,45244E-005	0,00000E+000	6,73002E-001	0,00000E+000	9	...........	-32768,00
	576	5,77	6,75850E-001	5,75528E-005	0,00000E+000	6,76002E-001	0,00000E+000	8	...........	-32768,00
	579	5,8	6,78853E-001	4,84526E-005	0,00000E+000	6,79003E-001	0,00000E+000	8	...........	-32768,00
	582	5,83	6,81956E-001	4,22188E-005	0,00000E+000	6,82003E-001	0,00000E+000	8	...........	-32768,00
	585	5,86	6,84959E-001	3,76253E-005	0,00000E+000	6,85003E-001	0,00000E+000	8	...........	-32768,00
	588	5,89	6,88062E-001	3,40908E-005	0,00000E+000	6,88003E-001	0,00000E+000	8	...........	-32768,00
	591	5,92	6,90965E-001	3,12378E-005	0,00000E+000	6,91004E-001	0,00000E+000	8	...........	-32768,00
	594	5,95	6,93968E-001	2,88959E-005	0,00000E+000	6,94004E-001	0,00000E+000	8	...........	-32768,00
	597	5,98	6,96971E-001	2,69349E-005	0,00000E+000	6,97004E-001	0,00000E+000	8	...........	-32768,00
	600	6,01	6,99973E-001	2,52946E-005	0,00000E+000	7,00004E-001	0,00000E+000	8	...........	-32768,00
	603	6,04	7,02976E-001	2,38848E-005	0,00000E+000	7,03005E-001	0,00000E+000	8	...........	-32768,00
	606	6,07	7,05979E-001	2,26621E-005	0,00000E+000	7,06005E-001	0,00000E+000	8	...........	-32768,00
	609	6,1	7,08982E-001	2,15530E-005	0,00000E+000	7,09005E-001	0,00000E+000	8	...........	-32768,00
	612	6,13	7,11885E-001	2,05875E-005	0,00000E+000	7,12005E-001	0,00000E+000	8	...........	-32768,00
	615	6,16	7,14888E-001	1,97189E-005	0,00000E+000	7,15006E-001	0,00000E+000	8	...........	-32768,00
	618	6,19	7,17891E-001	1,89840E-005	0,00000E+000	7,18006E-001	0,00000E+000	8	...........	-32768,00
	621	6,22	7,21094E-001	1,83258E-005	0,00000E+000	7,21006E-001	0,00000E+000	8	...........	-32768,00
	624	6,25	7,23896E-001	1,76777E-005	0,00000E+000	7,24006E-001	0,00000E+000	8	...........	-32768,00
	627	6,28	7,26899E-001	1,70931E-005	0,00000E+000	7,26994E-001	0,00000E+000	8	...........	-32768,00
	630	6,31	7,30002E-001	1,66154E-005	0,00000E+000	7,29994E-001	0,00000E+000	8	...........	-32768,00
	633	6,34	7,32905E-001	1,61343E-005	0,00000E+000	7,32994E-001	0,00000E+000	8	...........	-32768,00
	636	6,37	7,36008E-001	1,56933E-005	0,00000E+000	7,35995E-001	0,00000E+000	8	...........	-32768,00
	639	6,4	7,38911E-001	1,53025E-005	0,00000E+000	7,38995E-001	0,00000E+000	8	...........	-32768,00
	642	6,43	7,41914E-001	1,49350E-005	0,00000E+000	7,41995E-001	0,00000E+000	8	...........	-32768,00
	645	6,46	7,44917E-001	1,45842E-005	0,00000E+000	7,44995E-001	0,00000E+000	8	...........	-32768,00
	648	6,49	7,48020E-001	1,42836E-005	0,00000E+000	7,47996E-001	0,00000E+000	8	...........	-32768,00
	651	6,52	7,50922E-001	1,39795E-005	0,00000E+000	7,50996E-001	0,00000E+000	8	...........	-32768,00
	654	6,55	7,53825E-001	1,37223E-005	0,00000E+000	7,53996E-001	0,00000E+000	8	...........	-32768,00
	657	6,58	7,57028E-001	1,34484E-005	0,00000E+000	7,56996E-001	0,00000E+000	8	...........	-32768,00
	660	6,61	7,59931E-001	1,32145E-005	0,00000E+000	7,59997E-001	0,00000E+000	8	...........	-32768,00
	663	6,64	7,63034E-001	1,29873E-005	0,00000E+000	7,62997E-001	0,00000E+000	8	...........	-32768,00
	666	6,67	7,65937E-001	1,27802E-005	0,00000E+000	7,65997E-001	0,00000E+000	8	...........	-32768,00
	669	6,7	7,68940E-001	1,26065E-005	0,00000E+000	7,68997E-001	0,00000E+000	8	...........	-32768,00
	672	6,73	7,71943E-001	1,23960E-005	0,00000E+000	7,71998E-001	0,00000E+000	8	...........	-32768,00
	675	6,76	7,74945E-001	1,22457E-005	0,00000E+000	7,74998E-001	0,00000E+000	8	...........	-32768,00
	678	6,79	7,77948E-001	1,20720E-005	0,00000E+000	7,77998E-001	0,00000E+000	8	...........	-32768,00
	681	6,82	7,80951E-001	1,19083E-005	0,00000E+000	7,80998E-001	0,00000E+000	8	...........	-32768,00
	684	6,85	7,83954E-001	1,17747E-005	0,00000E+000	7,83999E-001	0,00000E+000	8	...........	-32768,00
	687	6,88	7,86957E-001	1,16277E-005	0,00000E+000	7,86999E-001	0,00000E+000	8	...........	-32768,00
	690	6,91	7,89860E-001	1,15007E-005	0,00000E+000	7,89999E-001	0,00000E+000	8	...........	-32768,00
	693	6,94	7,92963E-001	1,13637E-005	0,00000E+000	7,92999E-001	0,00000E+000	8	...........	-32768,00
	696	6,97	7,96066E-001	1,12268E-005	0,00000E+000	7,96000E-001	0,00000E+000	8	...........	-32768,00
	699	7	7,98868E-001	1,11466E-005	0,00000E+000	7,99000E-001	0,00000E+000	8	...........	-32768,00
	702	7,03	7,97968E-001	1,07156E-005	0,00000E+000	7,98000E-001	0,00000E+000	8	...........	-32768,00
	705	7,06	7,94965E-001	1,02713E-005	0,00000E+000	7,94999E-001	0,00000E+000	8	...........	-32768,00
	708	7,09	7,91962E-001	9,84706E-006	0,00000E+000	7,91999E-001	0,00000E+000	8	...........	-32768,00
	711	7,12	7,89059E-001	9,45285E-006	0,00000E+000	7,88999E-001	0,00000E+000	8	...........	-32768,00
	714	7,15	7,85956E-001	9,08871E-006	0,00000E+000	7,85999E-001	0,00000E+000	8	...........	-32768,00
	717	7,18	7,82953E-001	8,76800E-006	0,00000E+000	7,82998E-001	0,00000E+000	8	...........	-32768,00
	720	7,21	7,79950E-001	8,45731E-006	0,00000E+000	7,79998E-001	0,00000E+000	8	...........	-32768,00
	723	7,24	7,77048E-001	8,14662E-006	0,00000E+000	7,76998E-001	0,00000E+000	8	...........	-32768,00
	726	7,27	7,73844E-001	7,87268E-006	0,00000E+000	7,73998E-001	0,00000E+000	8	...........	-32768,00
	729	7,3	7,70942E-001	7,61544E-006	0,00000E+000	7,70998E-001	0,00000E+000	8	...........	-32768,00
	732	7,33	7,67939E-001	7,36489E-006	0,00000E+000	7,67997E-001	0,00000E+000	8	...........	-32768,00
	735	7,36	7,64936E-001	7,12770E-006	0,00000E+000	7,64997E-001	0,00000E+000	8	...........	-32768,00
	738	7,39	7,61933E-001	6,91389E-006	0,00000E+000	7,61997E-001	0,00000E+000	8	...........	-32768,00
	741	7,42	7,58930E-001	6,70008E-006	0,00000E+000	7,58997E-001	0,00000E+000	8	...........	-32768,00
	744	7,45	7,55927E-001	6,49296E-006	0,00000E+000	7,55996E-001	0,00000E+000	8	...........	-32768,00
	747	7,48	7,52924E-001	6,31256E-006	0,00000E+000	7,52996E-001	0,00000E+000	8	...........	-32768,00
	750	7,51	7,50022E-001	6,11879E-006	0,00000E+000	7,49996E-001	0,00000E+000	8	...........	-32768,00
	753	7,54	7,46919E-001	5,92503E-006	0,00000E+000	7,46996E-001	0,00000E+000	8	...........	-32768,00
	756	7,57	7,44016E-001	5,76134E-006	0,00000E+000	7,43995E-001	0,00000E+000	8	...........	-32768,00
	759	7,6	7,40913E-001	5,61768E-006	0,00000E+000	7,40995E-001	0,00000E+000	8	...........	-32768,00
	762	7,63	7,38010E-001	5,45399E-006	0,00000E+000	7,37995E-001	0,00000E+000	8	...........	-32768,00
	765	7,66	7,34907E-001	5,31368E-006	0,00000E+000	7,34995E-001	0,00000E+000	8	...........	-32768,00
	768	7,69	7,32004E-001	5,17003E-006	0,00000E+000	7,31994E-001	0,00000E+000	8	...........	-32768,00
	771	7,72	7,28901E-001	5,01635E-006	0,00000E+000	7,28994E-001	0,00000E+000	8	...........	-32768,00
	774	7,75	7,25898E-001	4,89274E-006	0,00000E+000	7,25994E-001	0,00000E+000	8	...........	-32768,00
	777	7,78	7,22996E-001	4,76245E-006	0,00000E+000	7,23006E-001	0,00000E+000	8	...........	-32768,00
	780	7,81	7,19993E-001	4,62214E-006	0,00000E+000	7,20006E-001	0,00000E+000	8	...........	-32768,00
	783	7,84	7,16990E-001	4,51858E-006	0,00000E+000	7,17006E-001	0,00000E+000	8	...........	-32768,00
	786	7,87	7,13887E-001	4,41836E-006	0,00000E+000	7,14005E-001	0,00000E+000	8	...........	-32768,00
	789	7,9	7,10984E-001	4,29475E-006	0,00000E+000	7,11005E-001	0,00000E+000	8	...........	-32768,00
	792	7,93	7,07881E-001	4,17115E-006	0,00000E+000	7,08005E-001	0,00000E+000	8	...........	-32768,00
	795	7,96	7,04878E-001	4,08095E-006	0,00000E+000	7,05005E-001	0,00000E+000	8	...........	-32768,00
	798	7,99	7,01975E-001	3,96068E-006	0,00000E+000	7,02004E-001	0,00000E+000	8	...........	-32768,00
	801	8,02	6,98872E-001	3,86714E-006	0,00000E+000	6,99004E-001	0,00000E+000	8	...........	-32768,00
	804	8,05	6,95769E-001	3,78028E-006	0,00000E+000	6,96004E-001	0,00000E+000	8	...........	-32768,00
	807	8,08	6,92867E-001	3,67672E-006	0,00000E+000	6,93004E-001	0,00000E+000	8	...........	-32768,00
	810	8,11	6,89964E-001	3,57983E-006	0,00000E+000	6,90004E-001	0,00000E+000	8	...........	-32768,00
	813	8,14	6,86961E-001	3,50300E-006	0,00000E+000	6,87003E-001	0,00000E+000	8	...........	-32768,00
	816	8,17	6,83958E-001	3,40946E-006	0,00000E+000	6,84003E-001	0,00000E+000	8	...........	-32768,00
	819	8,2	6,80955E-001	3,32260E-006	0,00000E+000	6,81003E-001	0,00000E+000	8	...........	-32768,00
	822	8,23	6,77852E-001	3,24242E-006	0,00000E+000	6,78003E-001	0,00000E+000	8	...........	-32768,00
	825	8,26	6,74849E-001	3,15890E-006	0,00000E+000	6,75002E-001	0,00000E+000	8	...........	-32768,00
	828	8,29	6,71947E-001	3,08875E-006	0,00000E+000	6,72002E-001	0,00000E+000	8	...........	-32768,00
	831	8,32	6,68944E-001	3,00523E-006	0,00000E+000	6,69002E-001	0,00000E+000	8	...........	-32768,00
	834	8,35	6,65941E-001	2,93507E-006	0,00000E+000	6,66002E-001	0,00000E+000	8	...........	-32768,00
	837	8,38	6,63038E-001	2,84487E-006	0,00000E+000	6,63001E-001	0,00000E+000	8	...........	-32768,00
	840	8,41	6,59835E-001	2,77138E-006	0,00000E+000	6,60001E-001	0,00000E+000	8	...........	-32768,00
	843	8,44	6,56932E-001	2,69454E-006	0,00000E+000	6,57001E-001	0,00000E+000	8	...........	-32768,00
	846	8,47	6,53929E-001	2,63441E-006	0,00000E+000	6,54001E-001	0,00000E+000	8	...........	-32768,00
	849	8,5	6,50926E-001	2,56091E-006	0,00000E+000	6,51000E-001	0,00000E+000	8	...........	-32768,00
	852	8,53	6,47823E-001	2,49410E-006	0,00000E+000	6,48000E-001	0,00000E+000	8	...........	-32768,00
	855	8,56	6,44820E-001	2,42394E-006	0,00000E+000	6,45000E-001	0,00000E+000	8	...........	-32768,00
	858	8,59	6,41918E-001	2,35713E-006	0,00000E+000	6,42000E-001	0,00000E+000	8	...........	-32768,00
	861	8,62	6,38915E-001	2,29699E-006	0,00000E+000	6,38999E-001	0,00000E+000	8	...........	-32768,00
	864	8,65	6,35812E-001	2,23018E-006	0,00000E+000	6,35999E-001	0,00000E+000	8	...........	-32768,00
	867	8,68	6,33009E-001	2,15668E-006	0,00000E+000	6,32999E-001	0,00000E+000	8	...........	-32768,00
	870	8,71	6,29906E-001	2,09655E-006	0,00000E+000	6,29999E-001	0,00000E+000	8	...........	-32768,00
	873	8,74	6,26803E-001	2,04310E-006	0,00000E+000	6,26998E-001	0,00000E+000	8	...........	-32768,00
	876	8,77	6,23900E-001	1,96960E-006	0,00000E+000	6,23998E-001	0,00000E+000	8	...........	-32768,00
	879	8,8	6,20897E-001	1,90613E-006	0,00000E+000	6,20998E-001	0,00000E+000	8	...........	-32768,00
	882	8,83	6,17795E-001	1,83263E-006	0,00000E+000	6,17998E-001	0,00000E+000	8	...........	-32768,00
	885	8,86	6,14792E-001	1,77584E-006	0,00000E+000	6,14998E-001	0,00000E+000	8	...........	-32768,00
	888	8,89	6,11889E-001	1,70234E-006	0,00000E+000	6,11997E-001	0,00000E+000	8	...........	-32768,00
	891	8,92	6,08786E-001	1,65557E-006	0,00000E+000	6,08997E-001	0,00000E+000	8	...........	-32768,00
	894	8,95	6,05983E-001	1,58876E-006	0,00000E+000	6,05997E-001	0,00000E+000	8	...........	-32768,00
	897	8,98	6,02880E-001	1,51860E-006	0,00000E+000	6,02997E-001	0,00000E+000	8	...........	-32768,00
	900	9,01	5,99877E-001	1,44510E-006	0,00000E+000	5,99996E-001	0,00000E+000	8	...........	-32768,00
	903	9,04	5,96874E-001	1,37495E-006	0,00000E+000	5,96996E-001	0,00000E+000	8	...........	-32768,00
	906	9,07	5,93872E-001	1,30479E-006	0,00000E+000	5,93996E-001	0,00000E+000	8	...........	-32768,00
	909	9,1	5,90969E-001	1,23464E-006	0,00000E+000	5,90996E-001	0,00000E+000	8	...........	-32768,00
	912	9,13	5,87866E-001	1,16782E-006	0,00000E+000	5,87995E-001	0,00000E+000	8	...........	-32768,00
	915	9,16	5,84863E-001	1,09767E-006	0,00000E+000	5,84995E-001	0,00000E+000	8	...........	-32768,00
	918	9,19	5,81960E-001	1,01749E-006	0,00000E+000	5,81995E-001	0,00000E+000	8	...........	-32768,00
	921	9,22	5,78857E-001	9,33972E-007	0,00000E+000	5,78995E-001	0,00000E+000	8	...........	-32768,00
	924	9,25	5,75954E-001	8,60476E-007	0,00000E+000	5,75994E-001	0,00000E+000	8	...........	-32768,00
	927	9,28	5,72951E-001	7,80298E-007	0,00000E+000	5,72994E-001	0,00000E+000	8	...........	-32768,00
	930	9,31	5,69848E-001	7,13483E-007	0,00000E+000	5,69994E-001	0,00000E+000	8	...........	-32768,00
	933	9,34	5,66846E-001	6,39987E-007	0,00000E+000	5,67006E-001	0,00000E+000	8	...........	-32768,00
	936	9,37	5,63943E-001	5,53128E-007	0,00000E+000	5,64006E-001	0,00000E+000	8	...........	-32768,00
	939	9,4	5,60840E-001	4,89654E-007	0,00000E+000	5,61006E-001	0,00000E+000	8	...........	-32768,00
	942	9,43	5,57837E-001	4,26180E-007	0,00000E+000	5,58005E-001	0,00000E+000	8	...........	-32768,00
	945	9,46	5,54934E-001	3,76069E-007	0,00000E+000	5,55005E-001	0,00000E+000	8	...........	-32768,00
	948	9,49	5,52031E-001	3,15936E-007	0,00000E+000	5,52005E-001	0,00000E+000	8	...........	-32768,00
	951	9,52	5,48928E-001	2,79188E-007	0,00000E+000	5,49005E-001	0,00000E+000	8	...........	-32768,00
	954	9,55	5,45825E-001	2,39099E-007	0,00000E+000	5,46004E-001	0,00000E+000	8	...........	-32768,00
	957	9,58	5,42923E-001	1,99010E-007	0,00000E+000	5,43004E-001	0,00000E+000	8	...........	-32768,00
	960	9,61	5,39920E-001	1,62262E-007	0,00000E+000	5,40004E-001	0,00000E+000	8	...........	-32768,00
	963	9,64	5,36817E-001	1,35536E-007	0,00000E+000	5,37004E-001	0,00000E+000	8	...........	-32768,00
	966	9,67	5,33914E-001	9,87878E-008	0,00000E+000	5,34003E-001	0,00000E+000	8	...........	-32768,00
	969	9,7	5,30911E-001	7,54026E-008	0,00000E+000	5,31003E-001	0,00000E+000	8	...........	-32768,00
	972	9,73	5,27908E-001	4,19953E-008	0,00000E+000	5,28003E-001	0,00000E+000	8	...........	-32768,00
	975	9,76	5,24805E-001	5,24718E-009	0,00000E+000	5,25003E-001	0,00000E+000	8	...........	-32768,00
	978	9,79	5,21802E-001	-4,77503E-009	0,00000E+000	5,22003E-001	0,00000E+000	8	...........	-32768,00
	981	9,82	5,18799E-001	-4,48639E-008	0,00000E+000	5,19002E-001	0,00000E+000	8	...........	-32768,00
	984	9,85	5,15796E-001	-6,15675E-008	0,00000E+000	5,16002E-001	0,00000E+000	8	...........	-32768,00
	987	9,88	5,12894E-001	-8,49527E-008	0,00000E+000	5,13002E-001	0,00000E+000	8	...........	-32768,00
	990	9,91	5,09791E-001	-1,11679E-007	0,00000E+000	5,10002E-001	0,00000E+000	8	...........	-32768,00
	993	9,94	5,06888E-001	-1,31723E-007	0,00000E+000	5,07001E-001	0,00000E+000	8	...........	-32768,00
	996	9,97	5,03785E-001	-1,58449E-007	0,00000E+000	5,04001E-001	0,00000E+000	8	...........	-32768,00
	999	10	5,00882E-001	-1,91856E-007	0,00000E+000	5,01001E-001	0,00000E+000	8	...........	-32768,00
	1002	10,03	4,97879E-001	-2,28604E-007	0,00000E+000	4,98001E-001	0,00000E+000	8	...........	-32768,00
	1005	10,06	4,94776E-001	-2,41967E-007	0,00000E+000	4,95000E-001	0,00000E+000	8	...........	-32768,00
	1008	10,09	4,91874E-001	-2,62012E-007	0,00000E+000	4,92000E-001	0,00000E+000	8	...........	-32768,00
	1011	10,12	4,88871E-001	-2,98760E-007	0,00000E+000	4,89000E-001	0,00000E+000	8	...........	-32768,00
	1014	10,15	4,85868E-001	-3,32167E-007	0,00000E+000	4,86000E-001	0,00000E+000	8	...........	-32768,00
	1017	10,18	4,82865E-001	-3,55552E-007	0,00000E+000	4,82999E-001	0,00000E+000	8	...........	-32768,00
	1020	10,21	4,79962E-001	-4,02323E-007	0,00000E+000	4,79999E-001	0,00000E+000	8	...........	-32768,00
	1023	10,24	4,76959E-001	-4,25708E-007	0,00000E+000	4,76999E-001	0,00000E+000	8	...........	-32768,00
	1026	10,27	4,73856E-001	-4,82500E-007	0,00000E+000	4,73999E-001	0,00000E+000	8	...........	-32768,00
	1029	10,3	4,70853E-001	-5,19248E-007	0,00000E+000	4,70998E-001	0,00000E+000	8	...........	-32768,00
	1032	10,33	4,67850E-001	-5,79382E-007	0,00000E+000	4,67998E-001	0,00000E+000	8	...........	-32768,00
	1035	10,36	4,64848E-001	-6,29493E-007	0,00000E+000	4,64998E-001	0,00000E+000	8	...........	-32768,00
	1038	10,39	4,61945E-001	-6,62900E-007	0,00000E+000	4,61998E-001	0,00000E+000	8	...........	-32768,00
	1041	10,42	4,58842E-001	-7,29715E-007	0,00000E+000	4,58997E-001	0,00000E+000	8	...........	-32768,00
	1044	10,45	4,55839E-001	-7,96529E-007	0,00000E+000	4,55997E-001	0,00000E+000	8	...........	-32768,00
	1047	10,48	4,52836E-001	-8,53322E-007	0,00000E+000	4,52997E-001	0,00000E+000	8	...........	-32768,00
	1050	10,51	4,49833E-001	-9,36840E-007	0,00000E+000	4,49997E-001	0,00000E+000	8	...........	-32768,00
	1053	10,54	4,46830E-001	-1,03038E-006	0,00000E+000	4,46997E-001	0,00000E+000	8	...........	-32768,00
	1056	10,57	4,43927E-001	-1,16401E-006	0,00000E+000	4,43996E-001	0,00000E+000	8	...........	-32768,00
	1059	10,6	4,40824E-001	-1,42459E-006	0,00000E+000	4,40996E-001	0,00000E+000	8	...........	-32768,00
	1062	10,63	4,37922E-001	-1,91234E-006	0,00000E+000	4,37996E-001	0,00000E+000	8	...........	-32768,00
	1065	10,66	4,34919E-001	-2,76088E-006	0,00000E+000	4,34996E-001	0,00000E+000	8	...........	-32768,00
	1068	10,69	4,31816E-001	-4,00364E-006	0,00000E+000	4,31995E-001	0,00000E+000	8	...........	-32768,00
	1071	10,72	4,28913E-001	-5,73748E-006	0,00000E+000	4,28995E-001	0,00000E+000	8	...........	-32768,00
	1074	10,75	4,25810E-001	-8,04927E-006	0,00000E+000	4,25995E-001	0,00000E+000	8	...........	-32768,00
	1077	10,78	4,22807E-001	-1,09824E-005	0,00000E+000	4,22995E-001	0,00000E+000	8	...........	-32768,00
	1080	10,81	4,19804E-001	-1,45270E-005	0,00000E+000	4,19994E-001	0,00000E+000	8	...........	-32768,00
	1083	10,84	4,16801E-001	-1,86093E-005	0,00000E+000	4,16994E-001	0,00000E+000	8	...........	-32768,00
	1086	10,87	4,13799E-001	-2,31394E-005	0,00000E+000	4,13994E-001	0,00000E+000	8	...........	-32768,00
	1089	10,9	4,10896E-001	-2,79467E-005	0,00000E+000	4,11006E-001	0,00000E+000	8	...........	-32768,00
	1092	10,93	4,07893E-001	-3,28876E-005	0,00000E+000	4,08006E-001	0,00000E+000	8	...........	-32768,00
	1095	10,96	4,04890E-001	-3,77517E-005	0,00000E+000	4,05006E-001	0,00000E+000	8	...........	-32768,00
	1098	10,99	4,01787E-001	-4,24254E-005	0,00000E+000	4,02005E-001	0,00000E+000	8	...........	-32768,00
	1101	11,02	3,98784E-001	-4,67985E-005	0,00000E+000	3,99005E-001	0,00000E+000	8	...........	-32768,00
	1104	11,05	3,95881E-001	-5,07572E-005	0,00000E+000	3,96005E-001	0,00000E+000	8	...........	-32768,00
	1107	11,08	3,92778E-001	-5,42984E-005	0,00000E+000	3,93005E-001	0,00000E+000	8	...........	-32768,00
	1110	11,11	3,89876E-001	-5,73552E-005	0,00000E+000	3,90004E-001	0,00000E+000	8	...........	-32768,00
	1113	11,14	3,86873E-001	-5,99643E-005	0,00000E+000	3,87004E-001	0,00000E+000	8	...........	-32768,00
	1116	11,17	3,83870E-001	-6,20990E-005	0,00000E+000	3,84004E-001	0,00000E+000	8	...........	-32768,00
	1119	11,2	3,80867E-001	-6,37928E-005	0,00000E+000	3,81004E-001	0,00000E+000	8	...........	-32768,00
	1122	11,23	3,77864E-001	-6,50723E-005	0,00000E+000	3,78003E-001	0,00000E+000	8	...........	-32768,00
	1125	11,26	3,74861E-001	-6,59676E-005	0,00000E+000	3,75003E-001	0,00000E+000	8	...........	-32768,00
	1128	11,29	3,71858E-001	-6,65389E-005	0,00000E+000	3,72003E-001	0,00000E+000	8	...........	-32768,00
	1131	11,32	3,68855E-001	-6,68028E-005	0,00000E+000	3,69003E-001	0,00000E+000	8	...........	-32768,00
	1134	11,35	3,65852E-001	-6,67961E-005	0,00000E+000	3,66003E-001	0,00000E+000	8	...........	-32768,00
	1137	11,38	3,62950E-001	-6,65656E-005	0,00000E+000	3,63002E-001	0,00000E+000	8	...........	-32768,00
	1140	11,41	3,59847E-001	-6,61280E-005	0,00000E+000	3,60002E-001	0,00000E+000	8	...........	-32768,00
	1143	11,44	3,56844E-001	-6,55133E-005	0,00000E+000	3,57002E-001	0,00000E+000	8	...........	-32768,00
	1146	11,47	3,53841E-001	-6,47883E-005	0,00000E+000	3,54002E-001	0,00000E+000	8	...........	-32768,00
	1149	11,5	3,50838E-001	-6,39498E-005	0,00000E+000	3,51001E-001	0,00000E+000	8	...........	-32768,00
	1152	11,53	3,47835E-001	-6,29877E-005	0,00000E+000	3,48001E-001	0,00000E+000	8	...........	-32768,00
	1155	11,56	3,44832E-001	-6,19788E-005	0,00000E+000	3,45001E-001	0,00000E+000	8	...........	-32768,00
	1158	11,59	3,41829E-001	-6,09264E-005	0,00000E+000	3,42001E-001	0,00000E+000	8	...........	-32768,00
	1161	11,62	3,38826E-001	-5,98474E-005	0,00000E+000	3,39000E-001	0,00000E+000	8	...........	-32768,00
	1164	11,65	3,35924E-001	-5,87449E-005	0,00000E+000	3,36000E-001	0,00000E+000	8	...........	-32768,00
	1167	11,68	3,32921E-001	-5,76458E-005	0,00000E+000	3,33000E-001	0,00000E+000	8	...........	-32768,00
	1170	11,71	3,29818E-001	-5,65133E-005	0,00000E+000	3,30000E-001	0,00000E+000	8	...........	-32768,00
	1173	11,74	3,26815E-001	-5,54242E-005	0,00000E+000	3,26999E-001	0,00000E+000	8	...........	-32768,00
	1176	11,77	3,23812E-001	-5,43352E-005	0,00000E+000	3,23999E-001	0,00000E+000	8	...........	-32768,00
	1179	11,8	3,20909E-001	-5,32594E-005	0,00000E+000	3,20999E-001	0,00000E+000	8	...........	-32768,00
	1182	11,83	3,17806E-001	-5,22004E-005	0,00000E+000	3,17999E-001	0,00000E+000	8	...........	-32768,00
	1185	11,86	3,14803E-001	-5,11715E-005	0,00000E+000	3,14998E-001	0,00000E+000	8	...........	-32768,00
	1188	11,89	3,11801E-001	-5,01793E-005	0,00000E+000	3,11998E-001	0,00000E+000	8	...........	-32768,00
	1191	11,92	3,08798E-001	-4,91938E-005	0,00000E+000	3,08998E-001	0,00000E+000	8	...........	-32768,00
	1194	11,95	3,05795E-001	-4,82316E-005	0,00000E+000	3,05998E-001	0,00000E+000	8	...........	-32768,00
	1197	11,98	3,02892E-001	-4,72929E-005	0,00000E+000	3,02997E-001	0,00000E+000	8	...........	-32768,00
	1200	12,01	2,99889E-001	-4,63909E-005	0,00000E+000	2,99997E-001	0,00000E+000	8	...........	-32768,00
	1203	12,04	2,96786E-001	-4,55156E-005	0,00000E+000	2,96997E-001	0,00000E+000	8	...........	-32768,00
	1206	12,07	2,93783E-001	-4,46570E-005	0,00000E+000	2,93997E-001	0,00000E+000	8	...........	-32768,00
	1209	12,1	2,90780E-001	-4,38185E-005	0,00000E+000	2,90996E-001	0,00000E+000	8	...........	-32768,00
	1212	12,13	2,87878E-001	-4,30167E-005	0,00000E+000	2,87996E-001	0,00000E+000	8	...........	-32768,00
	1215	12,16	2,84875E-001	-4,22450E-005	0,00000E+000	2,84996E-001	0,00000E+000	8	...........	-32768,00
	1218	12,19	2,81872E-001	-4,14666E-005	0,00000E+000	2,81996E-001	0,00000E+000	8	...........	-32768,00
	1221	12,22	2,78869E-001	-4,07183E-005	0,00000E+000	2,78996E-001	0,00000E+000	8	...........	-32768,00
	1224	12,25	2,75866E-001	-3,99967E-005	0,00000E+000	2,75995E-001	0,00000E+000	8	...........	-32768,00
	1227	12,28	2,72763E-001	-3,93085E-005	0,00000E+000	2,72995E-001	0,00000E+000	8	...........	-32768,00
	1230	12,31	2,69860E-001	-3,86103E-005	0,00000E+000	2,69995E-001	0,00000E+000	8	...........	-32768,00
	1233	12,34	2,66857E-001	-3,79622E-005	0,00000E+000	2,66995E-001	0,00000E+000	8	...........	-32768,00
	1236	12,37	2,63854E-001	-3,73141E-005	0,00000E+000	2,63994E-001	0,00000E+000	8	...........	-32768,00
	1239	12,4	2,60852E-001	-3,66961E-005	0,00000E+000	2,60994E-001	0,00000E+000	8	...........	-32768,00
	1242	12,43	2,57849E-001	-3,60881E-005	0,00000E+000	2,57994E-001	0,00000E+000	8	...........	-32768,00
	1245	12,46	2,54746E-001	-3,54834E-005	0,00000E+000	2,55006E-001	0,00000E+000	8	...........	-32768,00
	1248	12,49	2,51843E-001	-3,49188E-005	0,00000E+000	2,52006E-001	0,00000E+000	8	...........	-32768,00
	1251	12,52	2,48740E-001	-3,43609E-005	0,00000E+000	2,49006E-001	0,00000E+000	8	...........	-32768,00
	1254	12,55	2,45837E-001	-3,38464E-005	0,00000E+000	2,46005E-001	0,00000E+000	8	...........	-32768,00
	1257	12,58	2,42834E-001	-3,33052E-005	0,00000E+000	2,43005E-001	0,00000E+000	8	...........	-32768,00
	1260	12,61	2,39831E-001	-3,28175E-005	0,00000E+000	2,40005E-001	0,00000E+000	8	...........	-32768,00
	1263	12,64	2,36828E-001	-3,23398E-005	0,00000E+000	2,37005E-001	0,00000E+000	8	...........	-32768,00
	1266	12,67	2,33826E-001	-3,18487E-005	0,00000E+000	2,34004E-001	0,00000E+000	8	...........	-32768,00
	1269	12,7	2,30823E-001	-3,13943E-005	0,00000E+000	2,31004E-001	0,00000E+000	8	...........	-32768,00
	1272	12,73	2,27920E-001	-3,09600E-005	0,00000E+000	2,28004E-001	0,00000E+000	8	...........	-32768,00
	1275	12,76	2,24917E-001	-3,05358E-005	0,00000E+000	2,25004E-001	0,00000E+000	8	...........	-32768,00
	1278	12,79	2,21914E-001	-3,01382E-005	0,00000E+000	2,22003E-001	0,00000E+000	8	...........	-32768,00
	1281	12,82	2,18911E-001	-2,97340E-005	0,00000E+000	2,19003E-001	0,00000E+000	8	...........	-32768,00
	1284	12,85	2,15908E-001	-2,93565E-005	0,00000E+000	2,16003E-001	0,00000E+000	8	...........	-32768,00
	1287	12,88	2,12805E-001	-2,89690E-005	0,00000E+000	2,13003E-001	0,00000E+000	8	...........	-32768,00
	1290	12,91	2,09903E-001	-2,85981E-005	0,00000E+000	2,10003E-001	0,00000E+000	8	...........	-32768,00
	1293	12,94	2,06900E-001	-2,82707E-005	0,00000E+000	2,07002E-001	0,00000E+000	8	...........	-32768,00
	1296	12,97	2,03797E-001	-2,79400E-005	0,00000E+000	2,04002E-001	0,00000E+000	8	...........	-32768,00
	1299	13	2,00794E-001	-2,75993E-005	0,00000E+000	2,01002E-001	0,00000E+000	8	...........	-32768,00
	1302	13,03	1,97791E-001	-2,72852E-005	0,00000E+000	1,98002E-001	0,00000E+000	8	...........	-32768,00
	1305	13,06	1,94788E-001	-2,69712E-005	0,00000E+000	1,95001E-001	0,00000E+000	8	...........	-32768,00
	1308	13,09	1,91685E-001	-2,66806E-005	0,00000E+000	1,92001E-001	0,00000E+000	8	...........	-32768,00
	1311	13,12	1,88782E-001	-2,64033E-005	0,00000E+000	1,89001E-001	0,00000E+000	8	...........	-32768,00
	1314	13,15	1,85880E-001	-2,61126E-005	0,00000E+000	1,86001E-001	0,00000E+000	8	...........	-32768,00
	1317	13,18	1,82877E-001	-2,58320E-005	0,00000E+000	1,83000E-001	0,00000E+000	8	...........	-32768,00
	1320	13,21	1,79874E-001	-2,55614E-005	0,00000E+000	1,80000E-001	0,00000E+000	8	...........	-32768,00
	1323	13,24	1,76771E-001	-2,53175E-005	0,00000E+000	1,77000E-001	0,00000E+000	8	...........	-32768,00
	1326	13,27	1,73768E-001	-2,50837E-005	0,00000E+000	1,74000E-001	0,00000E+000	8	...........	-32768,00
	1329	13,3	1,70765E-001	-2,48365E-005	0,00000E+000	1,70999E-001	0,00000E+000	8	...........	-32768,00
	1332	13,33	1,67762E-001	-2,45759E-005	0,00000E+000	1,67999E-001	0,00000E+000	8	...........	-32768,00
	1335	13,36	1,64759E-001	-2,43587E-005	0,00000E+000	1,64999E-001	0,00000E+000	8	...........	-32768,00
	1338	13,39	1,61756E-001	-2,41416E-005	0,00000E+000	1,61999E-001	0,00000E+000	8	...........	-32768,00
	1341	13,42	1,58753E-001	-2,39211E-005	0,00000E+000	1,58998E-001	0,00000E+000	8	...........	-32768,00
	1344	13,45	1,55751E-001	-2,37006E-005	0,00000E+000	1,55998E-001	0,00000E+000	8	...........	-32768,00
	1347	13,48	1,52648E-001	-2,34868E-005	0,00000E+000	1,52998E-001	0,00000E+000	8	...........	-32768,00
	1350	13,51	1,49745E-001	-2,32830E-005	0,00000E+000	1,49998E-001	0,00000E+000	8	...........	-32768,00
	1353	13,54	1,46742E-001	-2,30859E-005	0,00000E+000	1,46997E-001	0,00000E+000	8	...........	-32768,00
	1356	13,57	1,43739E-001	-2,28988E-005	0,00000E+000	1,43997E-001	0,00000E+000	8	...........	-32768,00
	1359	13,6	1,40836E-001	-2,27118E-005	0,00000E+000	1,40997E-001	0,00000E+000	8	...........	-32768,00
	1362	13,63	1,37733E-001	-2,25314E-005	0,00000E+000	1,37997E-001	0,00000E+000	8	...........	-32768,00
	1365	13,66	1,34831E-001	-2,23510E-005	0,00000E+000	1,34997E-001	0,00000E+000	8	...........	-32768,00
	1368	13,69	1,31828E-001	-2,21772E-005	0,00000E+000	1,31996E-001	0,00000E+000	8	...........	-32768,00
	1371	13,72	1,28825E-001	-2,19902E-005	0,00000E+000	1,28996E-001	0,00000E+000	8	...........	-32768,00
	1374	13,75	1,25822E-001	-2,18298E-005	0,00000E+000	1,25996E-001	0,00000E+000	8	...........	-32768,00
	1377	13,78	1,22819E-001	-2,16761E-005	0,00000E+000	1,22996E-001	0,00000E+000	8	...........	-32768,00
	1380	13,81	1,19816E-001	-2,15091E-005	0,00000E+000	1,19995E-001	0,00000E+000	8	...........	-32768,00
	1383	13,84	1,16813E-001	-2,13688E-005	0,00000E+000	1,16995E-001	0,00000E+000	8	...........	-32768,00
	1386	13,87	1,13710E-001	-2,12084E-005	0,00000E+000	1,13995E-001	0,00000E+000	8	...........	-32768,00
	1389	13,9	1,10807E-001	-2,10514E-005	0,00000E+000	1,10995E-001	0,00000E+000	8	...........	-32768,00
	1392	13,93	1,07805E-001	-2,09144E-005	0,00000E+000	1,07994E-001	0,00000E+000	8	...........	-32768,00
	1395	13,96	1,04902E-001	-2,07708E-005	0,00000E+000	1,04994E-001	0,00000E+000	8	...........	-32768,00
	1398	13,99	1,01899E-001	-2,06372E-005	0,00000E+000	1,01994E-001	0,00000E+000	8	...........	-32768,00
	1400	14,01	9,97968E-002	-2,05436E-005	0,00000E+000	1,00006E-001	0,00000E+000	8	...........	-32768,00