File: HOPG_cv/1mM/AgNO3_HOPG_1mM_4_80mv_cv.DTA
EXPLAIN
TAG	CV
TITLE	LABEL	Cyclic Voltammetry	Test &Identifier
DATE	LABEL	7/4/2022	Date
TIME	LABEL	20:09:53	Time
NOTES	NOTES	2	&Notes...
	07/04/22 , 1mM  AgNO3

PSTAT	PSTAT	IFC1000-09004	Potentiostat
VINIT	POTEN	1,00000E-001	F	Initial &E (V)
VLIMIT1	POTEN	1,00000E-001	F	Scan Limit &1 (V)
VLIMIT2	POTEN	8,00000E-001	F	Scan Limit &2 (V)
VFINAL	POTEN	1,00000E-001	F	Final &E (V)
SCANRATE	QUANT	7,99998E+001	&Scan Rate (mV/s)
STEPSIZE	QUANT	1,00000E+000	St&ep Size (mV)
CYCLES	IQUANT	1	C&ycles (#)
IMODE	SELECTOR	0	I/E Range &Mode
IRANGE	QUANT	1,00000E-005	&Max Current (mA)
AREA	QUANT	1,00000E+000	Electrode &Area (cm^2)
ELECTRODETYPE	SELECTOR	0	Electrode Type
STRIPPING	TOGGLE	F	Used for Stripping
POLARITY	TOGGLE	F	Signal Polarity
CONDIT	TWOPARAM	F	1,50000E+001	0,00000E+000	Conditionin&g	Time(s)	E(V)
DELAY	TWOPARAM	F	3,00000E+001	0,00000E+000	Init. De&lay	Time(s)	Stab.(mV/s)
EQDELAY	QUANT	1,00000E+001	Equil. &Time (s)
IRCOMP	SELECTOR	0	IRCom&p
PFCOR	QUANT	5,00000E+001	PF Corr. (ohm)
SAMPLINGMODE	SELECTOR	0	Sampling &Mode
EOC	QUANT	0	Open Circuit (V)
PSTATMODEL	IQUANT	48	Pstat Model
PSTATSECTION	LABEL	IFC1000-09004	Pstat Section
PSTATSERIALNO	LABEL	09004	Pstat Serial Number
CTRLMODE	IQUANT	1	Control Mode
ELECTROMETER	IQUANT	0	RE=0 or CS=1
IESTAB	IQUANT	2	I/E Stability
CASPEED	IQUANT	4	Control Amp Speed
CONVENTION	IQUANT	1	Current Convention
ICHRANGE	IQUANT	2	Ich Range
ICHRANGEMODE	TOGGLE	F	Ich Auto Range
ICHOFFSETENABLE	TOGGLE	F	Ich Offset Enable
ICHOFFSET	QUANT	0	Ich Offset (V)
ICHFILTER	IQUANT	3	Ich Filter
VCHRANGE	IQUANT	2	Vch Range
VCHRANGEMODE	TOGGLE	F	Vch Auto Range
VCHOFFSETENABLE	TOGGLE	F	Vch Offset Enable
VCHOFFSET	QUANT	0	Vch Offset (V)
VCHFILTER	IQUANT	3	Vch Filter
IERANGELOWERLIMIT	IQUANT	4	I/E Range Lower Limit
IERANGEMODE	TOGGLE	T	I/E AutoRange
IERANGE	IQUANT	5	I/E Range
ACHSELECT	IQUANT	0	Ach Select
ACHRANGE	IQUANT	2	Ach Range
ACHOFFSETENABLE	TOGGLE	F	Ach Offset Enable
ACHOFFSET	QUANT	0	Ach Offset (V)
ACHFILTER	IQUANT	1	Ach Filter
CABLEID	IQUANT	14	Cable ID
DCCALDATE	LABEL	3/18/2022	DC Calibration Date
ACCALDATE	LABEL	3/10/2016	AC Calibration Date
FRAMEWORKVERSION	QUANT	7,05	Framework Version
INSTRUMENTVERSION	LABEL	4.21	Instrument Version
CURVE1	TABLE
	Pt	T	Vf	Im	Vu	Sig	Ach	IERange	Over	Temp
	#	s	V vs. Ref.	A	V	V	V	#	bits	deg C
	0	0,0125	9,97968E-002	-7,19738E-006	0,00000E+000	1,00006E-001	0,00000E+000	8	...........	-32768,00
	3	0,05	1,02700E-001	-7,00696E-006	0,00000E+000	1,02994E-001	0,00000E+000	8	...........	-32768,00
	6	0,0875	1,05803E-001	-6,88001E-006	0,00000E+000	1,05994E-001	0,00000E+000	8	...........	-32768,00
	9	0,125	1,08805E-001	-6,79649E-006	0,00000E+000	1,08994E-001	0,00000E+000	8	...........	-32768,00
	12	0,1625	1,11808E-001	-6,71297E-006	0,00000E+000	1,11995E-001	0,00000E+000	8	...........	-32768,00
	15	0,2	1,14811E-001	-6,65284E-006	0,00000E+000	1,14995E-001	0,00000E+000	8	...........	-32768,00
	18	0,2375	1,17814E-001	-6,56264E-006	0,00000E+000	1,17995E-001	0,00000E+000	8	...........	-32768,00
	21	0,275	1,20717E-001	-6,49917E-006	0,00000E+000	1,20995E-001	0,00000E+000	8	...........	-32768,00
	24	0,3125	1,23720E-001	-6,44571E-006	0,00000E+000	1,23996E-001	0,00000E+000	8	...........	-32768,00
	27	0,35	1,26723E-001	-6,36888E-006	0,00000E+000	1,26996E-001	0,00000E+000	8	...........	-32768,00
	30	0,3875	1,29826E-001	-6,31877E-006	0,00000E+000	1,29996E-001	0,00000E+000	8	...........	-32768,00
	33	0,425	1,32829E-001	-6,26866E-006	0,00000E+000	1,32996E-001	0,00000E+000	8	...........	-32768,00
	36	0,4625	1,35731E-001	-6,22188E-006	0,00000E+000	1,35997E-001	0,00000E+000	8	...........	-32768,00
	39	0,5	1,38734E-001	-6,18514E-006	0,00000E+000	1,38997E-001	0,00000E+000	8	...........	-32768,00
	42	0,5375	1,41737E-001	-6,12500E-006	0,00000E+000	1,41997E-001	0,00000E+000	8	...........	-32768,00
	45	0,575	1,44840E-001	-6,08491E-006	0,00000E+000	1,44997E-001	0,00000E+000	8	...........	-32768,00
	48	0,6125	1,47843E-001	-6,04817E-006	0,00000E+000	1,47998E-001	0,00000E+000	8	...........	-32768,00
	51	0,65	1,50746E-001	-6,01476E-006	0,00000E+000	1,50998E-001	0,00000E+000	8	...........	-32768,00
	54	0,6875	1,53849E-001	-5,97801E-006	0,00000E+000	1,53998E-001	0,00000E+000	8	...........	-32768,00
	57	0,725	1,56752E-001	-5,94126E-006	0,00000E+000	1,56998E-001	0,00000E+000	8	...........	-32768,00
	60	0,7625	1,59754E-001	-5,90117E-006	0,00000E+000	1,59999E-001	0,00000E+000	8	...........	-32768,00
	63	0,8	1,62757E-001	-5,88113E-006	0,00000E+000	1,62999E-001	0,00000E+000	8	...........	-32768,00
	66	0,8375	1,65860E-001	-5,85106E-006	0,00000E+000	1,65999E-001	0,00000E+000	8	...........	-32768,00
	69	0,875	1,68863E-001	-5,82434E-006	0,00000E+000	1,68999E-001	0,00000E+000	8	...........	-32768,00
	72	0,9125	1,71766E-001	-5,77423E-006	0,00000E+000	1,71999E-001	0,00000E+000	8	...........	-32768,00
	75	0,95	1,74769E-001	-5,76086E-006	0,00000E+000	1,75000E-001	0,00000E+000	8	...........	-32768,00
	78	0,9875	1,77772E-001	-5,72746E-006	0,00000E+000	1,78000E-001	0,00000E+000	8	...........	-32768,00
	81	1,025	1,80875E-001	-5,70073E-006	0,00000E+000	1,81000E-001	0,00000E+000	8	...........	-32768,00
	84	1,0625	1,83778E-001	-5,68737E-006	0,00000E+000	1,84000E-001	0,00000E+000	8	...........	-32768,00
	87	1,1	1,86780E-001	-5,64394E-006	0,00000E+000	1,87001E-001	0,00000E+000	8	...........	-32768,00
	90	1,1375	1,89783E-001	-5,62389E-006	0,00000E+000	1,90001E-001	0,00000E+000	8	...........	-32768,00
	93	1,175	1,92786E-001	-5,61721E-006	0,00000E+000	1,93001E-001	0,00000E+000	8	...........	-32768,00
	96	1,2125	1,95789E-001	-5,60385E-006	0,00000E+000	1,96001E-001	0,00000E+000	8	...........	-32768,00
	99	1,25	1,98792E-001	-5,57044E-006	0,00000E+000	1,99002E-001	0,00000E+000	8	...........	-32768,00
	102	1,2875	2,01795E-001	-5,54372E-006	0,00000E+000	2,02002E-001	0,00000E+000	8	...........	-32768,00
	105	1,325	2,04798E-001	-5,51699E-006	0,00000E+000	2,05002E-001	0,00000E+000	8	...........	-32768,00
	108	1,3625	2,07801E-001	-5,51031E-006	0,00000E+000	2,08002E-001	0,00000E+000	8	...........	-32768,00
	111	1,4	2,10803E-001	-5,48692E-006	0,00000E+000	2,11003E-001	0,00000E+000	8	...........	-32768,00
	114	1,4375	2,13906E-001	-5,46020E-006	0,00000E+000	2,14003E-001	0,00000E+000	8	...........	-32768,00
	117	1,475	2,16809E-001	-5,44683E-006	0,00000E+000	2,17003E-001	0,00000E+000	8	...........	-32768,00
	120	1,5125	2,19812E-001	-5,44015E-006	0,00000E+000	2,20003E-001	0,00000E+000	8	...........	-32768,00
	123	1,55	2,22815E-001	-5,42011E-006	0,00000E+000	2,23004E-001	0,00000E+000	8	...........	-32768,00
	126	1,5875	2,25818E-001	-5,40006E-006	0,00000E+000	2,26004E-001	0,00000E+000	8	...........	-32768,00
	129	1,625	2,28721E-001	-5,38002E-006	0,00000E+000	2,29004E-001	0,00000E+000	8	...........	-32768,00
	132	1,6625	2,31724E-001	-5,35329E-006	0,00000E+000	2,32004E-001	0,00000E+000	8	...........	-32768,00
	135	1,7	2,34827E-001	-5,34327E-006	0,00000E+000	2,35005E-001	0,00000E+000	8	...........	-32768,00
	138	1,7375	2,37829E-001	-5,31989E-006	0,00000E+000	2,38005E-001	0,00000E+000	8	...........	-32768,00
	141	1,775	2,40832E-001	-5,30652E-006	0,00000E+000	2,41005E-001	0,00000E+000	8	...........	-32768,00
	144	1,8125	2,43835E-001	-5,29650E-006	0,00000E+000	2,44005E-001	0,00000E+000	8	...........	-32768,00
	147	1,85	2,46838E-001	-5,26309E-006	0,00000E+000	2,47005E-001	0,00000E+000	8	...........	-32768,00
	150	1,8875	2,49741E-001	-5,24973E-006	0,00000E+000	2,50006E-001	0,00000E+000	8	...........	-32768,00
	153	1,925	2,52844E-001	-5,23637E-006	0,00000E+000	2,53006E-001	0,00000E+000	8	...........	-32768,00
	156	1,9625	2,55847E-001	-5,20964E-006	0,00000E+000	2,56006E-001	0,00000E+000	8	...........	-32768,00
	159	2	2,58850E-001	-5,21298E-006	0,00000E+000	2,58994E-001	0,00000E+000	8	...........	-32768,00
	162	2,0375	2,61853E-001	-5,17958E-006	0,00000E+000	2,61994E-001	0,00000E+000	8	...........	-32768,00
	165	2,075	2,64855E-001	-5,15285E-006	0,00000E+000	2,64994E-001	0,00000E+000	8	...........	-32768,00
	168	2,1125	2,67858E-001	-5,15285E-006	0,00000E+000	2,67995E-001	0,00000E+000	8	...........	-32768,00
	171	2,15	2,70861E-001	-5,11610E-006	0,00000E+000	2,70995E-001	0,00000E+000	8	...........	-32768,00
	174	2,1875	2,73864E-001	-5,08938E-006	0,00000E+000	2,73995E-001	0,00000E+000	8	...........	-32768,00
	177	2,225	2,76867E-001	-5,07267E-006	0,00000E+000	2,76995E-001	0,00000E+000	8	...........	-32768,00
	180	2,2625	2,79870E-001	-5,04595E-006	0,00000E+000	2,79996E-001	0,00000E+000	8	...........	-32768,00
	183	2,3	2,82773E-001	-5,02924E-006	0,00000E+000	2,82996E-001	0,00000E+000	8	...........	-32768,00
	186	2,3375	2,85776E-001	-4,99583E-006	0,00000E+000	2,85996E-001	0,00000E+000	8	...........	-32768,00
	189	2,375	2,88879E-001	-4,95909E-006	0,00000E+000	2,88996E-001	0,00000E+000	8	...........	-32768,00
	192	2,4125	2,91881E-001	-4,94572E-006	0,00000E+000	2,91997E-001	0,00000E+000	8	...........	-32768,00
	195	2,45	2,94784E-001	-4,91900E-006	0,00000E+000	2,94997E-001	0,00000E+000	8	...........	-32768,00
	198	2,4875	2,97887E-001	-4,86889E-006	0,00000E+000	2,97997E-001	0,00000E+000	8	...........	-32768,00
	201	2,525	3,00790E-001	-4,82212E-006	0,00000E+000	3,00997E-001	0,00000E+000	8	...........	-32768,00
	204	2,5625	3,03793E-001	-4,80875E-006	0,00000E+000	3,03998E-001	0,00000E+000	8	...........	-32768,00
	207	2,6	3,06896E-001	-4,75864E-006	0,00000E+000	3,06998E-001	0,00000E+000	8	...........	-32768,00
	210	2,6375	3,09799E-001	-4,71187E-006	0,00000E+000	3,09998E-001	0,00000E+000	8	...........	-32768,00
	213	2,675	3,12801E-001	-4,66510E-006	0,00000E+000	3,12998E-001	0,00000E+000	8	...........	-32768,00
	216	2,7125	3,15904E-001	-4,60497E-006	0,00000E+000	3,15998E-001	0,00000E+000	8	...........	-32768,00
	219	2,75	3,18807E-001	-4,56488E-006	0,00000E+000	3,18999E-001	0,00000E+000	8	...........	-32768,00
	222	2,7875	3,21810E-001	-4,50141E-006	0,00000E+000	3,21999E-001	0,00000E+000	8	...........	-32768,00
	225	2,825	3,24813E-001	-4,44461E-006	0,00000E+000	3,24999E-001	0,00000E+000	8	...........	-32768,00
	228	2,8625	3,27816E-001	-4,39784E-006	0,00000E+000	3,27999E-001	0,00000E+000	8	...........	-32768,00
	231	2,9	3,30819E-001	-4,31098E-006	0,00000E+000	3,31000E-001	0,00000E+000	8	...........	-32768,00
	234	2,9375	3,33822E-001	-4,25419E-006	0,00000E+000	3,34000E-001	0,00000E+000	8	...........	-32768,00
	237	2,975	3,36825E-001	-4,16733E-006	0,00000E+000	3,37000E-001	0,00000E+000	8	...........	-32768,00
	240	3,0125	3,39827E-001	-4,07379E-006	0,00000E+000	3,40000E-001	0,00000E+000	8	...........	-32768,00
	243	3,05	3,42830E-001	-3,97691E-006	0,00000E+000	3,43001E-001	0,00000E+000	8	...........	-32768,00
	246	3,0875	3,45833E-001	-3,88337E-006	0,00000E+000	3,46001E-001	0,00000E+000	8	...........	-32768,00
	249	3,125	3,48836E-001	-3,78649E-006	0,00000E+000	3,49001E-001	0,00000E+000	8	...........	-32768,00
	252	3,1625	3,51839E-001	-3,64952E-006	0,00000E+000	3,52001E-001	0,00000E+000	8	...........	-32768,00
	255	3,2	3,54742E-001	-3,52925E-006	0,00000E+000	3,55002E-001	0,00000E+000	8	...........	-32768,00
	258	3,2375	3,57745E-001	-3,38226E-006	0,00000E+000	3,58002E-001	0,00000E+000	8	...........	-32768,00
	261	3,275	3,60848E-001	-3,25865E-006	0,00000E+000	3,61002E-001	0,00000E+000	8	...........	-32768,00
	264	3,3125	3,63851E-001	-3,08827E-006	0,00000E+000	3,64002E-001	0,00000E+000	8	...........	-32768,00
	267	3,35	3,66853E-001	-2,94462E-006	0,00000E+000	3,67003E-001	0,00000E+000	8	...........	-32768,00
	270	3,3875	3,69756E-001	-2,74752E-006	0,00000E+000	3,70003E-001	0,00000E+000	8	...........	-32768,00
	273	3,425	3,72859E-001	-2,58048E-006	0,00000E+000	3,73003E-001	0,00000E+000	8	...........	-32768,00
	276	3,4625	3,75862E-001	-2,38004E-006	0,00000E+000	3,76003E-001	0,00000E+000	8	...........	-32768,00
	279	3,5	3,78865E-001	-2,18628E-006	0,00000E+000	3,79004E-001	0,00000E+000	8	...........	-32768,00
	282	3,5375	3,81868E-001	-1,94574E-006	0,00000E+000	3,82004E-001	0,00000E+000	8	...........	-32768,00
	285	3,575	3,84871E-001	-1,71189E-006	0,00000E+000	3,85004E-001	0,00000E+000	8	...........	-32768,00
	288	3,6125	3,87874E-001	-1,48472E-006	0,00000E+000	3,88004E-001	0,00000E+000	8	...........	-32768,00
	291	3,65	3,90877E-001	-1,23417E-006	0,00000E+000	3,91005E-001	0,00000E+000	8	...........	-32768,00
	294	3,6875	3,93879E-001	-9,80270E-007	0,00000E+000	3,94005E-001	0,00000E+000	8	...........	-32768,00
	297	3,725	3,96882E-001	-7,02989E-007	0,00000E+000	3,97005E-001	0,00000E+000	8	...........	-32768,00
	300	3,7625	3,99885E-001	-4,32389E-007	0,00000E+000	4,00005E-001	0,00000E+000	8	...........	-32768,00
	303	3,8	4,02888E-001	-1,48427E-007	0,00000E+000	4,03005E-001	0,00000E+000	8	...........	-32768,00
	306	3,8375	4,05791E-001	1,42217E-007	0,00000E+000	4,06006E-001	0,00000E+000	8	...........	-32768,00
	309	3,875	4,08794E-001	4,82972E-007	0,00000E+000	4,09006E-001	0,00000E+000	8	...........	-32768,00
	312	3,9125	4,11897E-001	7,70276E-007	0,00000E+000	4,12006E-001	0,00000E+000	8	...........	-32768,00
	315	3,95	4,14900E-001	1,11771E-006	0,00000E+000	4,14994E-001	0,00000E+000	8	...........	-32768,00
	318	3,9875	4,17902E-001	1,45179E-006	0,00000E+000	4,17994E-001	0,00000E+000	8	...........	-32768,00
	321	4,025	4,20805E-001	1,82929E-006	0,00000E+000	4,20994E-001	0,00000E+000	8	...........	-32768,00
	324	4,0625	4,23808E-001	2,19009E-006	0,00000E+000	4,23995E-001	0,00000E+000	8	...........	-32768,00
	327	4,1	4,26811E-001	2,58764E-006	0,00000E+000	4,26995E-001	0,00000E+000	8	...........	-32768,00
	330	4,1375	4,29814E-001	3,00857E-006	0,00000E+000	4,29995E-001	0,00000E+000	8	...........	-32768,00
	333	4,175	4,32917E-001	3,43952E-006	0,00000E+000	4,32995E-001	0,00000E+000	8	...........	-32768,00
	336	4,2125	4,35820E-001	3,90055E-006	0,00000E+000	4,35996E-001	0,00000E+000	8	...........	-32768,00
	339	4,25	4,38823E-001	4,38495E-006	0,00000E+000	4,38996E-001	0,00000E+000	8	...........	-32768,00
	342	4,2875	4,41825E-001	4,90945E-006	0,00000E+000	4,41996E-001	0,00000E+000	8	...........	-32768,00
	345	4,325	4,44728E-001	5,46401E-006	0,00000E+000	4,44996E-001	0,00000E+000	8	...........	-32768,00
	348	4,3625	4,47931E-001	6,04196E-006	0,00000E+000	4,47997E-001	0,00000E+000	8	...........	-32768,00
	351	4,4	4,50834E-001	6,68338E-006	0,00000E+000	4,50997E-001	0,00000E+000	8	...........	-32768,00
	354	4,4375	4,53737E-001	7,37157E-006	0,00000E+000	4,53997E-001	0,00000E+000	8	...........	-32768,00
	357	4,475	4,56840E-001	8,08983E-006	0,00000E+000	4,56997E-001	0,00000E+000	8	...........	-32768,00
	360	4,5125	4,59843E-001	8,86822E-006	0,00000E+000	4,59998E-001	0,00000E+000	8	...........	-32768,00
	363	4,55	4,62846E-001	9,71343E-006	0,00000E+000	4,62998E-001	0,00000E+000	8	...........	-32768,00
	366	4,5875	4,65849E-001	1,06087E-005	0,00000E+000	4,65998E-001	0,00000E+000	8	...........	-32768,00
	369	4,625	4,68751E-001	1,15508E-005	0,00000E+000	4,68998E-001	0,00000E+000	8	...........	-32768,00
	372	4,6625	4,71854E-001	1,25597E-005	0,00000E+000	4,71999E-001	0,00000E+000	8	...........	-32768,00
	375	4,7	4,74757E-001	1,36388E-005	0,00000E+000	4,74999E-001	0,00000E+000	8	...........	-32768,00
	378	4,7375	4,77760E-001	1,48181E-005	0,00000E+000	4,77999E-001	0,00000E+000	8	...........	-32768,00
	381	4,775	4,80863E-001	1,60575E-005	0,00000E+000	4,80999E-001	0,00000E+000	8	...........	-32768,00
	384	4,8125	4,83866E-001	1,73604E-005	0,00000E+000	4,83999E-001	0,00000E+000	8	...........	-32768,00
	387	4,85	4,86869E-001	1,87601E-005	0,00000E+000	4,87000E-001	0,00000E+000	8	...........	-32768,00
	390	4,8875	4,89872E-001	2,02635E-005	0,00000E+000	4,90000E-001	0,00000E+000	8	...........	-32768,00
	393	4,925	4,92874E-001	2,18269E-005	0,00000E+000	4,93000E-001	0,00000E+000	8	...........	-32768,00
	396	4,9625	4,95877E-001	2,34505E-005	0,00000E+000	4,96000E-001	0,00000E+000	8	...........	-32768,00
	399	5	4,98780E-001	2,52144E-005	0,00000E+000	4,99001E-001	0,00000E+000	8	...........	-32768,00
	402	5,0375	5,01883E-001	2,70518E-005	0,00000E+000	5,02001E-001	0,00000E+000	8	...........	-32768,00
	405	5,075	5,04886E-001	2,89962E-005	0,00000E+000	5,05001E-001	0,00000E+000	8	...........	-32768,00
	408	5,1125	5,07889E-001	3,10273E-005	0,00000E+000	5,08001E-001	0,00000E+000	8	...........	-32768,00
	411	5,15	5,10792E-001	3,31353E-005	0,00000E+000	5,11002E-001	0,00000E+000	8	...........	-32768,00
	414	5,1875	5,13795E-001	3,53436E-005	0,00000E+000	5,14002E-001	0,00000E+000	8	...........	-32768,00
	417	5,225	5,16898E-001	3,76787E-005	0,00000E+000	5,17002E-001	0,00000E+000	8	...........	-32768,00
	420	5,2625	5,19800E-001	4,00607E-005	0,00000E+000	5,20002E-001	0,00000E+000	8	...........	-32768,00
	423	5,3	5,22803E-001	4,25462E-005	0,00000E+000	5,23003E-001	0,00000E+000	8	...........	-32768,00
	426	5,3375	5,25806E-001	4,51085E-005	0,00000E+000	5,26003E-001	0,00000E+000	8	...........	-32768,00
	429	5,375	5,28909E-001	4,78012E-005	0,00000E+000	5,29003E-001	0,00000E+000	8	...........	-32768,00
	432	5,4125	5,31812E-001	5,05472E-005	0,00000E+000	5,32003E-001	0,00000E+000	8	...........	-32768,00
	435	5,45	5,34815E-001	5,33768E-005	0,00000E+000	5,35004E-001	0,00000E+000	8	...........	-32768,00
	438	5,4875	5,37918E-001	5,63000E-005	0,00000E+000	5,38004E-001	0,00000E+000	8	...........	-32768,00
	441	5,525	5,40921E-001	5,92766E-005	0,00000E+000	5,41004E-001	0,00000E+000	8	...........	-32768,00
	444	5,5625	5,43924E-001	6,23601E-005	0,00000E+000	5,44004E-001	0,00000E+000	8	...........	-32768,00
	447	5,6	5,46926E-001	6,55037E-005	0,00000E+000	5,47005E-001	0,00000E+000	8	...........	-32768,00
	450	5,6375	5,49929E-001	6,87409E-005	0,00000E+000	5,50005E-001	0,00000E+000	8	...........	-32768,00
	453	5,675	5,52832E-001	7,19881E-005	0,00000E+000	5,53005E-001	0,00000E+000	8	...........	-32768,00
	456	5,7125	5,55835E-001	7,53522E-005	0,00000E+000	5,56005E-001	0,00000E+000	8	...........	-32768,00
	459	5,75	5,58838E-001	7,87932E-005	0,00000E+000	5,59005E-001	0,00000E+000	8	...........	-32768,00
	462	5,7875	5,61841E-001	8,23310E-005	0,00000E+000	5,62006E-001	0,00000E+000	8	...........	-32768,00
	465	5,825	5,64744E-001	8,58989E-005	0,00000E+000	5,65006E-001	0,00000E+000	8	...........	-32768,00
	468	5,8625	5,67746E-001	8,95437E-005	0,00000E+000	5,68006E-001	0,00000E+000	8	...........	-32768,00
	471	5,9	5,70849E-001	9,30505E-005	0,00000E+000	5,70994E-001	0,00000E+000	9	...........	-32768,00
	474	5,9375	5,73852E-001	9,68893E-005	0,00000E+000	5,73994E-001	0,00000E+000	9	...........	-32768,00
	477	5,975	5,76755E-001	1,00628E-004	0,00000E+000	5,76994E-001	0,00000E+000	9	...........	-32768,00
	480	6,0125	5,79858E-001	1,04500E-004	0,00000E+000	5,79995E-001	0,00000E+000	9	...........	-32768,00
	483	6,05	5,82961E-001	1,08372E-004	0,00000E+000	5,82995E-001	0,00000E+000	9	...........	-32768,00
	486	6,0875	5,85864E-001	1,12278E-004	0,00000E+000	5,85995E-001	0,00000E+000	9	...........	-32768,00
	489	6,125	5,88867E-001	1,16250E-004	0,00000E+000	5,88995E-001	0,00000E+000	9	...........	-32768,00
	492	6,1625	5,91870E-001	1,20156E-004	0,00000E+000	5,91996E-001	0,00000E+000	9	...........	-32768,00
	495	6,2	5,94872E-001	1,24061E-004	0,00000E+000	5,94996E-001	0,00000E+000	9	...........	-32768,00
	498	6,2375	5,97875E-001	1,27900E-004	0,00000E+000	5,97996E-001	0,00000E+000	9	...........	-32768,00
	501	6,275	6,00878E-001	1,31872E-004	0,00000E+000	6,00996E-001	0,00000E+000	9	...........	-32768,00
	504	6,3125	6,03881E-001	1,35778E-004	0,00000E+000	6,03997E-001	0,00000E+000	9	...........	-32768,00
	507	6,35	6,06884E-001	1,39716E-004	0,00000E+000	6,06997E-001	0,00000E+000	9	...........	-32768,00
	510	6,3875	6,09887E-001	1,43689E-004	0,00000E+000	6,09997E-001	0,00000E+000	9	...........	-32768,00
	513	6,425	6,12890E-001	1,47594E-004	0,00000E+000	6,12997E-001	0,00000E+000	9	...........	-32768,00
	516	6,4625	6,15893E-001	1,51533E-004	0,00000E+000	6,15998E-001	0,00000E+000	9	...........	-32768,00
	519	6,5	6,18896E-001	1,55439E-004	0,00000E+000	6,18998E-001	0,00000E+000	9	...........	-32768,00
	522	6,5375	6,21798E-001	1,59244E-004	0,00000E+000	6,21998E-001	0,00000E+000	9	...........	-32768,00
	525	6,575	6,24801E-001	1,62983E-004	0,00000E+000	6,24998E-001	0,00000E+000	9	...........	-32768,00
	528	6,6125	6,27904E-001	1,66521E-004	0,00000E+000	6,27999E-001	0,00000E+000	9	...........	-32768,00
	531	6,65	6,30907E-001	1,69726E-004	0,00000E+000	6,30999E-001	0,00000E+000	9	...........	-32768,00
	534	6,6875	6,33910E-001	1,72630E-004	0,00000E+000	6,33999E-001	0,00000E+000	9	...........	-32768,00
	537	6,725	6,36813E-001	1,74632E-004	0,00000E+000	6,36999E-001	0,00000E+000	9	...........	-32768,00
	540	6,7625	6,39816E-001	1,76001E-004	0,00000E+000	6,40000E-001	0,00000E+000	9	...........	-32768,00
	543	6,8	6,42819E-001	1,76068E-004	0,00000E+000	6,43000E-001	0,00000E+000	9	...........	-32768,00
	546	6,8375	6,45922E-001	1,74332E-004	0,00000E+000	6,46000E-001	0,00000E+000	9	...........	-32768,00
	549	6,875	6,48924E-001	1,70293E-004	0,00000E+000	6,49000E-001	0,00000E+000	9	...........	-32768,00
	552	6,9125	6,52027E-001	1,62949E-004	0,00000E+000	6,52000E-001	0,00000E+000	9	...........	-32768,00
	555	6,95	6,54930E-001	1,51066E-004	0,00000E+000	6,55001E-001	0,00000E+000	9	...........	-32768,00
	558	6,9875	6,57933E-001	1,32840E-004	0,00000E+000	6,58001E-001	0,00000E+000	9	...........	-32768,00
	561	7,025	6,60936E-001	1,05335E-004	0,00000E+000	6,61001E-001	0,00000E+000	9	...........	-32768,00
	564	7,0625	6,63939E-001	7,06522E-005	0,00000E+000	6,64001E-001	0,00000E+000	9	...........	-32768,00
	567	7,1	6,66942E-001	5,12688E-005	0,00000E+000	6,67002E-001	0,00000E+000	8	...........	-32768,00
	570	7,1375	6,69945E-001	4,21720E-005	0,00000E+000	6,70002E-001	0,00000E+000	8	...........	-32768,00
	573	7,175	6,72947E-001	3,61921E-005	0,00000E+000	6,73002E-001	0,00000E+000	8	...........	-32768,00
	576	7,2125	6,75950E-001	3,18224E-005	0,00000E+000	6,76002E-001	0,00000E+000	8	...........	-32768,00
	579	7,25	6,78853E-001	2,85685E-005	0,00000E+000	6,79003E-001	0,00000E+000	8	...........	-32768,00
	582	7,2875	6,81956E-001	2,59360E-005	0,00000E+000	6,82003E-001	0,00000E+000	8	...........	-32768,00
	585	7,325	6,84859E-001	2,38247E-005	0,00000E+000	6,85003E-001	0,00000E+000	8	...........	-32768,00
	588	7,3625	6,87862E-001	2,20942E-005	0,00000E+000	6,88003E-001	0,00000E+000	8	...........	-32768,00
	591	7,4	6,90965E-001	2,06142E-005	0,00000E+000	6,91004E-001	0,00000E+000	8	...........	-32768,00
	594	7,4375	6,93968E-001	1,93514E-005	0,00000E+000	6,94004E-001	0,00000E+000	8	...........	-32768,00
	597	7,475	6,96971E-001	1,82691E-005	0,00000E+000	6,97004E-001	0,00000E+000	8	...........	-32768,00
	600	7,5125	6,99973E-001	1,73136E-005	0,00000E+000	7,00004E-001	0,00000E+000	8	...........	-32768,00
	603	7,55	7,02976E-001	1,64617E-005	0,00000E+000	7,03005E-001	0,00000E+000	8	...........	-32768,00
	606	7,5875	7,05879E-001	1,57468E-005	0,00000E+000	7,06005E-001	0,00000E+000	8	...........	-32768,00
	609	7,625	7,08882E-001	1,50753E-005	0,00000E+000	7,09005E-001	0,00000E+000	8	...........	-32768,00
	612	7,6625	7,11885E-001	1,44773E-005	0,00000E+000	7,12005E-001	0,00000E+000	8	...........	-32768,00
	615	7,7	7,14888E-001	1,39628E-005	0,00000E+000	7,15006E-001	0,00000E+000	8	...........	-32768,00
	618	7,7375	7,17891E-001	1,34651E-005	0,00000E+000	7,18006E-001	0,00000E+000	8	...........	-32768,00
	621	7,775	7,20894E-001	1,30208E-005	0,00000E+000	7,21006E-001	0,00000E+000	8	...........	-32768,00
	624	7,8125	7,23896E-001	1,26332E-005	0,00000E+000	7,24006E-001	0,00000E+000	8	...........	-32768,00
	627	7,85	7,26999E-001	1,22457E-005	0,00000E+000	7,26994E-001	0,00000E+000	8	...........	-32768,00
	630	7,8875	7,29902E-001	1,19083E-005	0,00000E+000	7,29994E-001	0,00000E+000	8	...........	-32768,00
	633	7,925	7,33005E-001	1,15842E-005	0,00000E+000	7,32994E-001	0,00000E+000	8	...........	-32768,00
	636	7,9625	7,35908E-001	1,12903E-005	0,00000E+000	7,35995E-001	0,00000E+000	8	...........	-32768,00
	639	8	7,39011E-001	1,10330E-005	0,00000E+000	7,38995E-001	0,00000E+000	8	...........	-32768,00
	642	8,0375	7,41914E-001	1,07992E-005	0,00000E+000	7,41995E-001	0,00000E+000	8	...........	-32768,00
	645	8,075	7,45017E-001	1,05753E-005	0,00000E+000	7,44995E-001	0,00000E+000	8	...........	-32768,00
	648	8,1125	7,48020E-001	1,03415E-005	0,00000E+000	7,47996E-001	0,00000E+000	8	...........	-32768,00
	651	8,15	7,50922E-001	1,01344E-005	0,00000E+000	7,50996E-001	0,00000E+000	8	...........	-32768,00
	654	8,1875	7,53925E-001	9,93391E-006	0,00000E+000	7,53996E-001	0,00000E+000	8	...........	-32768,00
	657	8,225	7,56928E-001	9,77022E-006	0,00000E+000	7,56996E-001	0,00000E+000	8	...........	-32768,00
	660	8,2625	7,59931E-001	9,60652E-006	0,00000E+000	7,59997E-001	0,00000E+000	8	...........	-32768,00
	663	8,3	7,62934E-001	9,47623E-006	0,00000E+000	7,62997E-001	0,00000E+000	8	...........	-32768,00
	666	8,3375	7,65937E-001	9,29917E-006	0,00000E+000	7,65997E-001	0,00000E+000	8	...........	-32768,00
	669	8,375	7,68940E-001	9,19227E-006	0,00000E+000	7,68997E-001	0,00000E+000	8	...........	-32768,00
	672	8,4125	7,71943E-001	9,03526E-006	0,00000E+000	7,71998E-001	0,00000E+000	8	...........	-32768,00
	675	8,45	7,74945E-001	8,90831E-006	0,00000E+000	7,74998E-001	0,00000E+000	8	...........	-32768,00
	678	8,4875	7,77948E-001	8,80140E-006	0,00000E+000	7,77998E-001	0,00000E+000	8	...........	-32768,00
	681	8,525	7,80951E-001	8,71455E-006	0,00000E+000	7,80998E-001	0,00000E+000	8	...........	-32768,00
	684	8,5625	7,83954E-001	8,59762E-006	0,00000E+000	7,83999E-001	0,00000E+000	8	...........	-32768,00
	687	8,6	7,86857E-001	8,49406E-006	0,00000E+000	7,86999E-001	0,00000E+000	8	...........	-32768,00
	690	8,6375	7,90060E-001	8,38715E-006	0,00000E+000	7,89999E-001	0,00000E+000	8	...........	-32768,00
	693	8,675	7,92863E-001	8,30364E-006	0,00000E+000	7,92999E-001	0,00000E+000	8	...........	-32768,00
	696	8,7125	7,95966E-001	8,21010E-006	0,00000E+000	7,96000E-001	0,00000E+000	8	...........	-32768,00
	699	8,75	7,98969E-001	8,13660E-006	0,00000E+000	7,99000E-001	0,00000E+000	8	...........	-32768,00
	702	8,7875	7,98068E-001	7,84261E-006	0,00000E+000	7,98000E-001	0,00000E+000	8	...........	-32768,00
	705	8,825	7,94965E-001	7,49184E-006	0,00000E+000	7,94999E-001	0,00000E+000	8	...........	-32768,00
	708	8,8625	7,91962E-001	7,20453E-006	0,00000E+000	7,91999E-001	0,00000E+000	8	...........	-32768,00
	711	8,9	7,88959E-001	6,90053E-006	0,00000E+000	7,88999E-001	0,00000E+000	8	...........	-32768,00
	714	8,9375	7,85956E-001	6,64997E-006	0,00000E+000	7,85999E-001	0,00000E+000	8	...........	-32768,00
	717	8,975	7,82953E-001	6,41278E-006	0,00000E+000	7,82998E-001	0,00000E+000	8	...........	-32768,00
	720	9,0125	7,79950E-001	6,17893E-006	0,00000E+000	7,79998E-001	0,00000E+000	8	...........	-32768,00
	723	9,05	7,77048E-001	5,96512E-006	0,00000E+000	7,76998E-001	0,00000E+000	8	...........	-32768,00
	726	9,0875	7,73944E-001	5,76468E-006	0,00000E+000	7,73998E-001	0,00000E+000	8	...........	-32768,00
	729	9,125	7,70942E-001	5,54419E-006	0,00000E+000	7,70998E-001	0,00000E+000	8	...........	-32768,00
	732	9,1625	7,67939E-001	5,36379E-006	0,00000E+000	7,67997E-001	0,00000E+000	8	...........	-32768,00
	735	9,2	7,64936E-001	5,21346E-006	0,00000E+000	7,64997E-001	0,00000E+000	8	...........	-32768,00
	738	9,2375	7,61933E-001	5,05310E-006	0,00000E+000	7,61997E-001	0,00000E+000	8	...........	-32768,00
	741	9,275	7,58830E-001	4,88606E-006	0,00000E+000	7,58997E-001	0,00000E+000	8	...........	-32768,00
	744	9,3125	7,55927E-001	4,74241E-006	0,00000E+000	7,55996E-001	0,00000E+000	8	...........	-32768,00
	747	9,35	7,53024E-001	4,60544E-006	0,00000E+000	7,52996E-001	0,00000E+000	8	...........	-32768,00
	750	9,3875	7,49921E-001	4,47515E-006	0,00000E+000	7,49996E-001	0,00000E+000	8	...........	-32768,00
	753	9,425	7,47019E-001	4,36491E-006	0,00000E+000	7,46996E-001	0,00000E+000	8	...........	-32768,00
	756	9,4625	7,43916E-001	4,23462E-006	0,00000E+000	7,43995E-001	0,00000E+000	8	...........	-32768,00
	759	9,5	7,41013E-001	4,11101E-006	0,00000E+000	7,40995E-001	0,00000E+000	8	...........	-32768,00
	762	9,5375	7,37910E-001	4,01413E-006	0,00000E+000	7,37995E-001	0,00000E+000	8	...........	-32768,00
	765	9,575	7,34907E-001	3,88384E-006	0,00000E+000	7,34995E-001	0,00000E+000	8	...........	-32768,00
	768	9,6125	7,31904E-001	3,79030E-006	0,00000E+000	7,31994E-001	0,00000E+000	8	...........	-32768,00
	771	9,65	7,29001E-001	3,69342E-006	0,00000E+000	7,28994E-001	0,00000E+000	8	...........	-32768,00
	774	9,6875	7,25898E-001	3,58986E-006	0,00000E+000	7,25994E-001	0,00000E+000	8	...........	-32768,00
	777	9,725	7,22896E-001	3,48295E-006	0,00000E+000	7,23006E-001	0,00000E+000	8	...........	-32768,00
	780	9,7625	7,19893E-001	3,38941E-006	0,00000E+000	7,20006E-001	0,00000E+000	8	...........	-32768,00
	783	9,8	7,16890E-001	3,32260E-006	0,00000E+000	7,17006E-001	0,00000E+000	8	...........	-32768,00
	786	9,8375	7,13987E-001	3,23574E-006	0,00000E+000	7,14005E-001	0,00000E+000	8	...........	-32768,00
	789	9,875	7,10884E-001	3,14554E-006	0,00000E+000	7,11005E-001	0,00000E+000	8	...........	-32768,00
	792	9,9125	7,07881E-001	3,06870E-006	0,00000E+000	7,08005E-001	0,00000E+000	8	...........	-32768,00
	795	9,95	7,04878E-001	3,01525E-006	0,00000E+000	7,05005E-001	0,00000E+000	8	...........	-32768,00
	798	9,9875	7,01875E-001	2,90501E-006	0,00000E+000	7,02004E-001	0,00000E+000	8	...........	-32768,00
	801	10,025	6,98973E-001	2,84487E-006	0,00000E+000	6,99004E-001	0,00000E+000	8	...........	-32768,00
	804	10,0625	6,95970E-001	2,79810E-006	0,00000E+000	6,96004E-001	0,00000E+000	8	...........	-32768,00
	807	10,1	6,92867E-001	2,71458E-006	0,00000E+000	6,93004E-001	0,00000E+000	8	...........	-32768,00
	810	10,1375	6,89864E-001	2,65445E-006	0,00000E+000	6,90004E-001	0,00000E+000	8	...........	-32768,00
	813	10,175	6,86861E-001	2,57761E-006	0,00000E+000	6,87003E-001	0,00000E+000	8	...........	-32768,00
	816	10,2125	6,83958E-001	2,52416E-006	0,00000E+000	6,84003E-001	0,00000E+000	8	...........	-32768,00
	819	10,25	6,80955E-001	2,45067E-006	0,00000E+000	6,81003E-001	0,00000E+000	8	...........	-32768,00
	822	10,2875	6,77952E-001	2,38719E-006	0,00000E+000	6,78003E-001	0,00000E+000	8	...........	-32768,00
	825	10,325	6,74949E-001	2,32372E-006	0,00000E+000	6,75002E-001	0,00000E+000	8	...........	-32768,00
	828	10,3625	6,71846E-001	2,28029E-006	0,00000E+000	6,72002E-001	0,00000E+000	8	...........	-32768,00
	831	10,4	6,68944E-001	2,22684E-006	0,00000E+000	6,69002E-001	0,00000E+000	8	...........	-32768,00
	834	10,4375	6,65841E-001	2,17004E-006	0,00000E+000	6,66002E-001	0,00000E+000	8	...........	-32768,00
	837	10,475	6,63038E-001	2,10991E-006	0,00000E+000	6,63001E-001	0,00000E+000	8	...........	-32768,00
	840	10,5125	6,59935E-001	2,06314E-006	0,00000E+000	6,60001E-001	0,00000E+000	8	...........	-32768,00
	843	10,55	6,56832E-001	1,99967E-006	0,00000E+000	6,57001E-001	0,00000E+000	8	...........	-32768,00
	846	10,5875	6,53829E-001	1,94621E-006	0,00000E+000	6,54001E-001	0,00000E+000	8	...........	-32768,00
	849	10,625	6,50926E-001	1,89610E-006	0,00000E+000	6,51000E-001	0,00000E+000	8	...........	-32768,00
	852	10,6625	6,47823E-001	1,86938E-006	0,00000E+000	6,48000E-001	0,00000E+000	8	...........	-32768,00
	855	10,7	6,44921E-001	1,81593E-006	0,00000E+000	6,45000E-001	0,00000E+000	8	...........	-32768,00
	858	10,7375	6,41818E-001	1,75579E-006	0,00000E+000	6,42000E-001	0,00000E+000	8	...........	-32768,00
	861	10,775	6,38815E-001	1,72573E-006	0,00000E+000	6,38999E-001	0,00000E+000	8	...........	-32768,00
	864	10,8125	6,35912E-001	1,66225E-006	0,00000E+000	6,35999E-001	0,00000E+000	8	...........	-32768,00
	867	10,85	6,32909E-001	1,61882E-006	0,00000E+000	6,32999E-001	0,00000E+000	8	...........	-32768,00
	870	10,8875	6,29806E-001	1,55869E-006	0,00000E+000	6,29999E-001	0,00000E+000	8	...........	-32768,00
	873	10,925	6,26803E-001	1,52194E-006	0,00000E+000	6,26998E-001	0,00000E+000	8	...........	-32768,00
	876	10,9625	6,23900E-001	1,48519E-006	0,00000E+000	6,23998E-001	0,00000E+000	8	...........	-32768,00
	879	11	6,20998E-001	1,44176E-006	0,00000E+000	6,20998E-001	0,00000E+000	8	...........	-32768,00
	882	11,0375	6,17895E-001	1,37829E-006	0,00000E+000	6,17998E-001	0,00000E+000	8	...........	-32768,00
	885	11,075	6,14892E-001	1,33486E-006	0,00000E+000	6,14998E-001	0,00000E+000	8	...........	-32768,00
	888	11,1125	6,11889E-001	1,29143E-006	0,00000E+000	6,11997E-001	0,00000E+000	8	...........	-32768,00
	891	11,15	6,08986E-001	1,24800E-006	0,00000E+000	6,08997E-001	0,00000E+000	8	...........	-32768,00
	894	11,1875	6,05983E-001	1,20457E-006	0,00000E+000	6,05997E-001	0,00000E+000	8	...........	-32768,00
	897	11,225	6,02880E-001	1,15112E-006	0,00000E+000	6,02997E-001	0,00000E+000	8	...........	-32768,00
	900	11,2625	5,99877E-001	1,11437E-006	0,00000E+000	5,99996E-001	0,00000E+000	8	...........	-32768,00
	903	11,3	5,96874E-001	1,06426E-006	0,00000E+000	5,96996E-001	0,00000E+000	8	...........	-32768,00
	906	11,3375	5,93872E-001	1,00747E-006	0,00000E+000	5,93996E-001	0,00000E+000	8	...........	-32768,00
	909	11,375	5,90769E-001	9,54016E-007	0,00000E+000	5,90996E-001	0,00000E+000	8	...........	-32768,00
	912	11,4125	5,87966E-001	9,10587E-007	0,00000E+000	5,87995E-001	0,00000E+000	8	...........	-32768,00
	915	11,45	5,84863E-001	8,50453E-007	0,00000E+000	5,84995E-001	0,00000E+000	8	...........	-32768,00
	918	11,4875	5,81860E-001	7,97002E-007	0,00000E+000	5,81995E-001	0,00000E+000	8	...........	-32768,00
	921	11,525	5,78957E-001	7,40209E-007	0,00000E+000	5,78995E-001	0,00000E+000	8	...........	-32768,00
	924	11,5625	5,75854E-001	6,90098E-007	0,00000E+000	5,75994E-001	0,00000E+000	8	...........	-32768,00
	927	11,6	5,72851E-001	6,29965E-007	0,00000E+000	5,72994E-001	0,00000E+000	8	...........	-32768,00
	930	11,6375	5,69848E-001	5,63150E-007	0,00000E+000	5,69994E-001	0,00000E+000	8	...........	-32768,00
	933	11,675	5,66946E-001	5,03017E-007	0,00000E+000	5,67006E-001	0,00000E+000	8	...........	-32768,00
	936	11,7125	5,63843E-001	4,46224E-007	0,00000E+000	5,64006E-001	0,00000E+000	8	...........	-32768,00
	939	11,75	5,60740E-001	4,09476E-007	0,00000E+000	5,61006E-001	0,00000E+000	8	...........	-32768,00
	942	11,7875	5,57837E-001	3,49343E-007	0,00000E+000	5,58005E-001	0,00000E+000	8	...........	-32768,00
	945	11,825	5,54934E-001	3,05913E-007	0,00000E+000	5,55005E-001	0,00000E+000	8	...........	-32768,00
	948	11,8625	5,51931E-001	2,69165E-007	0,00000E+000	5,52005E-001	0,00000E+000	8	...........	-32768,00
	951	11,9	5,48828E-001	2,32417E-007	0,00000E+000	5,49005E-001	0,00000E+000	8	...........	-32768,00
	954	11,9375	5,45925E-001	1,78965E-007	0,00000E+000	5,46004E-001	0,00000E+000	8	...........	-32768,00
	957	11,975	5,42923E-001	1,68943E-007	0,00000E+000	5,43004E-001	0,00000E+000	8	...........	-32768,00
	960	12,0125	5,39820E-001	1,48899E-007	0,00000E+000	5,40004E-001	0,00000E+000	8	...........	-32768,00
	963	12,05	5,36717E-001	1,25514E-007	0,00000E+000	5,37004E-001	0,00000E+000	8	...........	-32768,00
	966	12,0875	5,33914E-001	9,87878E-008	0,00000E+000	5,34003E-001	0,00000E+000	8	...........	-32768,00
	969	12,125	5,30911E-001	8,87656E-008	0,00000E+000	5,31003E-001	0,00000E+000	8	...........	-32768,00
	972	12,1625	5,27908E-001	6,53804E-008	0,00000E+000	5,28003E-001	0,00000E+000	8	...........	-32768,00
	975	12,2	5,24905E-001	4,86768E-008	0,00000E+000	5,25003E-001	0,00000E+000	8	...........	-32768,00
	978	12,2375	5,21802E-001	2,86323E-008	0,00000E+000	5,22003E-001	0,00000E+000	8	...........	-32768,00
	981	12,275	5,18900E-001	1,90645E-009	0,00000E+000	5,19002E-001	0,00000E+000	8	...........	-32768,00
	984	12,3125	5,15796E-001	-1,43429E-009	0,00000E+000	5,16002E-001	0,00000E+000	8	...........	-32768,00
	987	12,35	5,12794E-001	-3,15009E-008	0,00000E+000	5,13002E-001	0,00000E+000	8	...........	-32768,00
	990	12,3875	5,09791E-001	-4,82046E-008	0,00000E+000	5,10002E-001	0,00000E+000	8	...........	-32768,00
	993	12,425	5,06888E-001	-6,15675E-008	0,00000E+000	5,07001E-001	0,00000E+000	8	...........	-32768,00
	996	12,4625	5,03885E-001	-7,49305E-008	0,00000E+000	5,04001E-001	0,00000E+000	8	...........	-32768,00
	999	12,5	5,00882E-001	-9,83156E-008	0,00000E+000	5,01001E-001	0,00000E+000	8	...........	-32768,00
	1002	12,5375	4,97879E-001	-1,04997E-007	0,00000E+000	4,98001E-001	0,00000E+000	8	...........	-32768,00
	1005	12,575	4,94876E-001	-1,45086E-007	0,00000E+000	4,95000E-001	0,00000E+000	8	...........	-32768,00
	1008	12,6125	4,91874E-001	-1,55108E-007	0,00000E+000	4,92000E-001	0,00000E+000	8	...........	-32768,00
	1011	12,65	4,88871E-001	-1,68471E-007	0,00000E+000	4,89000E-001	0,00000E+000	8	...........	-32768,00
	1014	12,6875	4,85868E-001	-1,98538E-007	0,00000E+000	4,86000E-001	0,00000E+000	8	...........	-32768,00
	1017	12,725	4,82865E-001	-2,18582E-007	0,00000E+000	4,82999E-001	0,00000E+000	8	...........	-32768,00
	1020	12,7625	4,79762E-001	-2,38627E-007	0,00000E+000	4,79999E-001	0,00000E+000	8	...........	-32768,00
	1023	12,8	4,76759E-001	-2,78715E-007	0,00000E+000	4,76999E-001	0,00000E+000	8	...........	-32768,00
	1026	12,8375	4,73856E-001	-3,08782E-007	0,00000E+000	4,73999E-001	0,00000E+000	8	...........	-32768,00
	1029	12,875	4,70853E-001	-3,35508E-007	0,00000E+000	4,70998E-001	0,00000E+000	8	...........	-32768,00
	1032	12,9125	4,67850E-001	-3,68915E-007	0,00000E+000	4,67998E-001	0,00000E+000	8	...........	-32768,00
	1035	12,95	4,64747E-001	-4,05663E-007	0,00000E+000	4,64998E-001	0,00000E+000	8	...........	-32768,00
	1038	12,9875	4,61845E-001	-4,52434E-007	0,00000E+000	4,61998E-001	0,00000E+000	8	...........	-32768,00
	1041	13,025	4,58842E-001	-4,92522E-007	0,00000E+000	4,58997E-001	0,00000E+000	8	...........	-32768,00
	1044	13,0625	4,55839E-001	-5,42634E-007	0,00000E+000	4,55997E-001	0,00000E+000	8	...........	-32768,00
	1047	13,1	4,52836E-001	-5,89404E-007	0,00000E+000	4,52997E-001	0,00000E+000	8	...........	-32768,00
	1050	13,1375	4,49933E-001	-6,59559E-007	0,00000E+000	4,49997E-001	0,00000E+000	8	...........	-32768,00
	1053	13,175	4,46830E-001	-7,46418E-007	0,00000E+000	4,46997E-001	0,00000E+000	8	...........	-32768,00
	1056	13,2125	4,43827E-001	-9,26818E-007	0,00000E+000	4,43996E-001	0,00000E+000	8	...........	-32768,00
	1059	13,25	4,40824E-001	-1,27425E-006	0,00000E+000	4,40996E-001	0,00000E+000	8	...........	-32768,00
	1062	13,2875	4,37822E-001	-1,90231E-006	0,00000E+000	4,37996E-001	0,00000E+000	8	...........	-32768,00
	1065	13,325	4,34819E-001	-2,90787E-006	0,00000E+000	4,34996E-001	0,00000E+000	8	...........	-32768,00
	1068	13,3625	4,31816E-001	-4,34439E-006	0,00000E+000	4,31995E-001	0,00000E+000	8	...........	-32768,00
	1071	13,4	4,28813E-001	-6,32211E-006	0,00000E+000	4,28995E-001	0,00000E+000	8	...........	-32768,00
	1074	13,4375	4,25810E-001	-8,88445E-006	0,00000E+000	4,25995E-001	0,00000E+000	8	...........	-32768,00
	1077	13,475	4,22807E-001	-1,20414E-005	0,00000E+000	4,22995E-001	0,00000E+000	8	...........	-32768,00
	1080	13,5125	4,19804E-001	-1,57664E-005	0,00000E+000	4,19994E-001	0,00000E+000	8	...........	-32768,00
	1083	13,55	4,16801E-001	-1,99289E-005	0,00000E+000	4,16994E-001	0,00000E+000	8	...........	-32768,00
	1086	13,5875	4,13899E-001	-2,44055E-005	0,00000E+000	4,13994E-001	0,00000E+000	8	...........	-32768,00
	1089	13,625	4,10796E-001	-2,89957E-005	0,00000E+000	4,11006E-001	0,00000E+000	8	...........	-32768,00
	1092	13,6625	4,07993E-001	-3,35792E-005	0,00000E+000	4,08006E-001	0,00000E+000	8	...........	-32768,00
	1095	13,7	4,04890E-001	-3,79689E-005	0,00000E+000	4,05006E-001	0,00000E+000	8	...........	-32768,00
	1098	13,7375	4,01987E-001	-4,20446E-005	0,00000E+000	4,02005E-001	0,00000E+000	8	...........	-32768,00
	1101	13,775	3,98884E-001	-4,57394E-005	0,00000E+000	3,99005E-001	0,00000E+000	8	...........	-32768,00
	1104	13,8125	3,95881E-001	-4,90000E-005	0,00000E+000	3,96005E-001	0,00000E+000	8	...........	-32768,00
	1107	13,85	3,92979E-001	-5,17862E-005	0,00000E+000	3,93005E-001	0,00000E+000	8	...........	-32768,00
	1110	13,8875	3,89876E-001	-5,41247E-005	0,00000E+000	3,90004E-001	0,00000E+000	8	...........	-32768,00
	1113	13,925	3,86873E-001	-5,59888E-005	0,00000E+000	3,87004E-001	0,00000E+000	8	...........	-32768,00
	1116	13,9625	3,83870E-001	-5,74387E-005	0,00000E+000	3,84004E-001	0,00000E+000	8	...........	-32768,00
	1119	14	3,80867E-001	-5,84944E-005	0,00000E+000	3,81004E-001	0,00000E+000	8	...........	-32768,00
	1122	14,0375	3,77764E-001	-5,91859E-005	0,00000E+000	3,78003E-001	0,00000E+000	8	...........	-32768,00
	1125	14,075	3,74861E-001	-5,95668E-005	0,00000E+000	3,75003E-001	0,00000E+000	8	...........	-32768,00
	1128	14,1125	3,71858E-001	-5,96636E-005	0,00000E+000	3,72003E-001	0,00000E+000	8	...........	-32768,00
	1131	14,15	3,68855E-001	-5,95367E-005	0,00000E+000	3,69003E-001	0,00000E+000	8	...........	-32768,00
	1134	14,1875	3,65852E-001	-5,91792E-005	0,00000E+000	3,66003E-001	0,00000E+000	8	...........	-32768,00
	1137	14,225	3,62850E-001	-5,86547E-005	0,00000E+000	3,63002E-001	0,00000E+000	8	...........	-32768,00
	1140	14,2625	3,59847E-001	-5,79966E-005	0,00000E+000	3,60002E-001	0,00000E+000	8	...........	-32768,00
	1143	14,3	3,56844E-001	-5,72182E-005	0,00000E+000	3,57002E-001	0,00000E+000	8	...........	-32768,00
	1146	14,3375	3,53741E-001	-5,63597E-005	0,00000E+000	3,54002E-001	0,00000E+000	8	...........	-32768,00
	1149	14,375	3,50938E-001	-5,54476E-005	0,00000E+000	3,51001E-001	0,00000E+000	8	...........	-32768,00
	1152	14,4125	3,47835E-001	-5,44955E-005	0,00000E+000	3,48001E-001	0,00000E+000	8	...........	-32768,00
	1155	14,45	3,44832E-001	-5,34766E-005	0,00000E+000	3,45001E-001	0,00000E+000	8	...........	-32768,00
	1158	14,4875	3,41929E-001	-5,24577E-005	0,00000E+000	3,42001E-001	0,00000E+000	8	...........	-32768,00
	1161	14,525	3,38826E-001	-5,14321E-005	0,00000E+000	3,39000E-001	0,00000E+000	8	...........	-32768,00
	1164	14,5625	3,35824E-001	-5,03697E-005	0,00000E+000	3,36000E-001	0,00000E+000	8	...........	-32768,00
	1167	14,6	3,32921E-001	-4,93541E-005	0,00000E+000	3,33000E-001	0,00000E+000	8	...........	-32768,00
	1170	14,6375	3,29818E-001	-4,83385E-005	0,00000E+000	3,30000E-001	0,00000E+000	8	...........	-32768,00
	1173	14,675	3,26915E-001	-4,73697E-005	0,00000E+000	3,26999E-001	0,00000E+000	8	...........	-32768,00
	1176	14,7125	3,23912E-001	-4,64143E-005	0,00000E+000	3,23999E-001	0,00000E+000	8	...........	-32768,00
	1179	14,75	3,20809E-001	-4,54789E-005	0,00000E+000	3,20999E-001	0,00000E+000	8	...........	-32768,00
	1182	14,7875	3,17806E-001	-4,45502E-005	0,00000E+000	3,17999E-001	0,00000E+000	8	...........	-32768,00
	1185	14,825	3,14703E-001	-4,36649E-005	0,00000E+000	3,14998E-001	0,00000E+000	8	...........	-32768,00
	1188	14,8625	3,11801E-001	-4,27829E-005	0,00000E+000	3,11998E-001	0,00000E+000	8	...........	-32768,00
	1191	14,9	3,08798E-001	-4,19243E-005	0,00000E+000	3,08998E-001	0,00000E+000	8	...........	-32768,00
	1194	14,9375	3,05895E-001	-4,10958E-005	0,00000E+000	3,05998E-001	0,00000E+000	8	...........	-32768,00
	1197	14,975	3,02792E-001	-4,02974E-005	0,00000E+000	3,02997E-001	0,00000E+000	8	...........	-32768,00
	1200	15,0125	2,99789E-001	-3,95123E-005	0,00000E+000	2,99997E-001	0,00000E+000	8	...........	-32768,00
	1203	15,05	2,96886E-001	-3,87473E-005	0,00000E+000	2,96997E-001	0,00000E+000	8	...........	-32768,00
	1206	15,0875	2,93783E-001	-3,80023E-005	0,00000E+000	2,93997E-001	0,00000E+000	8	...........	-32768,00
	1209	15,125	2,90880E-001	-3,72974E-005	0,00000E+000	2,90996E-001	0,00000E+000	8	...........	-32768,00
	1212	15,1625	2,87777E-001	-3,66025E-005	0,00000E+000	2,87996E-001	0,00000E+000	8	...........	-32768,00
	1215	15,2	2,84775E-001	-3,59244E-005	0,00000E+000	2,84996E-001	0,00000E+000	8	...........	-32768,00
	1218	15,2375	2,81772E-001	-3,52863E-005	0,00000E+000	2,81996E-001	0,00000E+000	8	...........	-32768,00
	1221	15,275	2,78769E-001	-3,46549E-005	0,00000E+000	2,78996E-001	0,00000E+000	8	...........	-32768,00
	1224	15,3125	2,75766E-001	-3,40235E-005	0,00000E+000	2,75995E-001	0,00000E+000	8	...........	-32768,00
	1227	15,35	2,72863E-001	-3,34355E-005	0,00000E+000	2,72995E-001	0,00000E+000	8	...........	-32768,00
	1230	15,3875	2,69860E-001	-3,28743E-005	0,00000E+000	2,69995E-001	0,00000E+000	8	...........	-32768,00
	1233	15,425	2,66857E-001	-3,23197E-005	0,00000E+000	2,66995E-001	0,00000E+000	8	...........	-32768,00
	1236	15,4625	2,63854E-001	-3,17718E-005	0,00000E+000	2,63994E-001	0,00000E+000	8	...........	-32768,00
	1239	15,5	2,60751E-001	-3,12540E-005	0,00000E+000	2,60994E-001	0,00000E+000	8	...........	-32768,00
	1242	15,5375	2,57749E-001	-3,07563E-005	0,00000E+000	2,57994E-001	0,00000E+000	8	...........	-32768,00
	1245	15,575	2,54846E-001	-3,02618E-005	0,00000E+000	2,55006E-001	0,00000E+000	8	...........	-32768,00
	1248	15,6125	2,51843E-001	-2,98108E-005	0,00000E+000	2,52006E-001	0,00000E+000	8	...........	-32768,00
	1251	15,65	2,48840E-001	-2,93431E-005	0,00000E+000	2,49006E-001	0,00000E+000	8	...........	-32768,00
	1254	15,6875	2,45837E-001	-2,89155E-005	0,00000E+000	2,46005E-001	0,00000E+000	8	...........	-32768,00
	1257	15,725	2,42934E-001	-2,84812E-005	0,00000E+000	2,43005E-001	0,00000E+000	8	...........	-32768,00
	1260	15,7625	2,39831E-001	-2,80670E-005	0,00000E+000	2,40005E-001	0,00000E+000	8	...........	-32768,00
	1263	15,8	2,36828E-001	-2,76494E-005	0,00000E+000	2,37005E-001	0,00000E+000	8	...........	-32768,00
	1266	15,8375	2,33826E-001	-2,72952E-005	0,00000E+000	2,34004E-001	0,00000E+000	8	...........	-32768,00
	1269	15,875	2,30823E-001	-2,69111E-005	0,00000E+000	2,31004E-001	0,00000E+000	8	...........	-32768,00
	1272	15,9125	2,27820E-001	-2,65469E-005	0,00000E+000	2,28004E-001	0,00000E+000	8	...........	-32768,00
	1275	15,95	2,24717E-001	-2,61995E-005	0,00000E+000	2,25004E-001	0,00000E+000	8	...........	-32768,00
	1278	15,9875	2,21814E-001	-2,58654E-005	0,00000E+000	2,22003E-001	0,00000E+000	8	...........	-32768,00
	1281	16,025	2,18811E-001	-2,55213E-005	0,00000E+000	2,19003E-001	0,00000E+000	8	...........	-32768,00
	1284	16,0625	2,15808E-001	-2,52140E-005	0,00000E+000	2,16003E-001	0,00000E+000	8	...........	-32768,00
	1287	16,1	2,12805E-001	-2,48966E-005	0,00000E+000	2,13003E-001	0,00000E+000	8	...........	-32768,00
	1290	16,1375	2,09803E-001	-2,46126E-005	0,00000E+000	2,10003E-001	0,00000E+000	8	...........	-32768,00
	1293	16,175	2,06800E-001	-2,43354E-005	0,00000E+000	2,07002E-001	0,00000E+000	8	...........	-32768,00
	1296	16,2125	2,03797E-001	-2,40614E-005	0,00000E+000	2,04002E-001	0,00000E+000	8	...........	-32768,00
	1299	16,25	2,00894E-001	-2,37875E-005	0,00000E+000	2,01002E-001	0,00000E+000	8	...........	-32768,00
	1302	16,2875	1,97891E-001	-2,35135E-005	0,00000E+000	1,98002E-001	0,00000E+000	8	...........	-32768,00
	1305	16,325	1,94888E-001	-2,32530E-005	0,00000E+000	1,95001E-001	0,00000E+000	8	...........	-32768,00
	1308	16,3625	1,91785E-001	-2,30024E-005	0,00000E+000	1,92001E-001	0,00000E+000	8	...........	-32768,00
	1311	16,4	1,88782E-001	-2,27886E-005	0,00000E+000	1,89001E-001	0,00000E+000	8	...........	-32768,00
	1314	16,4375	1,85779E-001	-2,25447E-005	0,00000E+000	1,86001E-001	0,00000E+000	8	...........	-32768,00
	1317	16,475	1,82777E-001	-2,23142E-005	0,00000E+000	1,83000E-001	0,00000E+000	8	...........	-32768,00
	1320	16,5125	1,79774E-001	-2,20937E-005	0,00000E+000	1,80000E-001	0,00000E+000	8	...........	-32768,00
	1323	16,55	1,76671E-001	-2,18799E-005	0,00000E+000	1,77000E-001	0,00000E+000	8	...........	-32768,00
	1326	16,5875	1,73768E-001	-2,16895E-005	0,00000E+000	1,74000E-001	0,00000E+000	8	...........	-32768,00
	1329	16,625	1,70765E-001	-2,14556E-005	0,00000E+000	1,70999E-001	0,00000E+000	8	...........	-32768,00
	1332	16,6625	1,67762E-001	-2,12686E-005	0,00000E+000	1,67999E-001	0,00000E+000	8	...........	-32768,00
	1335	16,7	1,64759E-001	-2,10681E-005	0,00000E+000	1,64999E-001	0,00000E+000	8	...........	-32768,00
	1338	16,7375	1,61756E-001	-2,08777E-005	0,00000E+000	1,61999E-001	0,00000E+000	8	...........	-32768,00
	1341	16,775	1,58753E-001	-2,06973E-005	0,00000E+000	1,58998E-001	0,00000E+000	8	...........	-32768,00
	1344	16,8125	1,55851E-001	-2,05169E-005	0,00000E+000	1,55998E-001	0,00000E+000	8	...........	-32768,00
	1347	16,85	1,52748E-001	-2,03599E-005	0,00000E+000	1,52998E-001	0,00000E+000	8	...........	-32768,00
	1350	16,8875	1,49745E-001	-2,01661E-005	0,00000E+000	1,49998E-001	0,00000E+000	8	...........	-32768,00
	1353	16,925	1,46842E-001	-2,00024E-005	0,00000E+000	1,46997E-001	0,00000E+000	8	...........	-32768,00
	1356	16,9625	1,43839E-001	-1,98454E-005	0,00000E+000	1,43997E-001	0,00000E+000	8	...........	-32768,00
	1359	17	1,40736E-001	-1,97018E-005	0,00000E+000	1,40997E-001	0,00000E+000	8	...........	-32768,00
	1362	17,0375	1,37833E-001	-1,95381E-005	0,00000E+000	1,37997E-001	0,00000E+000	8	...........	-32768,00
	1365	17,075	1,34831E-001	-1,93844E-005	0,00000E+000	1,34997E-001	0,00000E+000	8	...........	-32768,00
	1368	17,1125	1,31928E-001	-1,92240E-005	0,00000E+000	1,31996E-001	0,00000E+000	8	...........	-32768,00
	1371	17,15	1,28825E-001	-1,90904E-005	0,00000E+000	1,28996E-001	0,00000E+000	8	...........	-32768,00
	1374	17,1875	1,25822E-001	-1,89601E-005	0,00000E+000	1,25996E-001	0,00000E+000	8	...........	-32768,00
	1377	17,225	1,22819E-001	-1,88165E-005	0,00000E+000	1,22996E-001	0,00000E+000	8	...........	-32768,00
	1380	17,2625	1,19716E-001	-1,86895E-005	0,00000E+000	1,19995E-001	0,00000E+000	8	...........	-32768,00
	1383	17,3	1,16813E-001	-1,85692E-005	0,00000E+000	1,16995E-001	0,00000E+000	8	...........	-32768,00
	1386	17,3375	1,13810E-001	-1,84456E-005	0,00000E+000	1,13995E-001	0,00000E+000	8	...........	-32768,00
	1389	17,375	1,10807E-001	-1,83187E-005	0,00000E+000	1,10995E-001	0,00000E+000	8	...........	-32768,00
	1392	17,4125	1,07704E-001	-1,82185E-005	0,00000E+000	1,07994E-001	0,00000E+000	8	...........	-32768,00
	1395	17,45	1,04702E-001	-1,81116E-005	0,00000E+000	1,04994E-001	0,00000E+000	8	...........	-32768,00
	1398	17,4875	1,01799E-001	-1,80047E-005	0,00000E+000	1,01994E-001	0,00000E+000	8	...........	-32768,00
	1400	17,5125	9,96967E-002	-1,79378E-005	0,00000E+000	1,00006E-001	0,00000E+000	8	...........	-32768,00